subj_id,inclusion,block,trial,task,alpha,angle_sigma,orientation,stimulus,response,accuracy,response_time,confidence,increase_presses,decrease_presses,BOLD_rTPJ,BOLD_pMFC,BOLD_FPm,BOLD_FPl,BOLD_preSMA,BOLD_vmPFC
01LeEm,0,1,153,Discrimination,0.0477987293703271,7.01486765864282,45,1,1,1,0.91568449999977,6,4,0,NaN,NaN,NaN,NaN,NaN,NaN
01LeEm,0,1,154,Discrimination,0.0477987293703271,7.01486765864282,45,1,1,1,1.03493949999938,4,4,1,NaN,NaN,NaN,NaN,NaN,NaN
01LeEm,0,1,155,Discrimination,0.0477987293703271,7.01486765864282,-45,0,0,1,1.48354749999999,3,0,2,NaN,NaN,NaN,NaN,NaN,NaN
01LeEm,0,1,156,Discrimination,0.0477987293703271,7.01486765864282,45,1,1,1,0.782976200000121,6,4,0,NaN,NaN,NaN,NaN,NaN,NaN
01LeEm,0,1,157,Discrimination,0.0477987293703271,7.01486765864282,-45,0,0,1,0.912989299999936,5,2,1,NaN,NaN,NaN,NaN,NaN,NaN
01LeEm,0,1,158,Discrimination,0.0477987293703271,7.01486765864282,45,1,1,1,0.868263800000022,6,5,0,NaN,NaN,NaN,NaN,NaN,NaN
01LeEm,0,1,159,Discrimination,0.0477987293703271,7.01486765864282,-45,0,1,0,1.13469950000035,6,2,0,NaN,NaN,NaN,NaN,NaN,NaN
01LeEm,0,1,160,Discrimination,0.0477987293703271,7.01486765864282,45,1,1,1,0.984368299999915,6,4,0,NaN,NaN,NaN,NaN,NaN,NaN
01LeEm,0,1,161,Discrimination,0.0477987293703271,7.01486765864282,45,1,1,1,1.50033780000012,2,1,0,NaN,NaN,NaN,NaN,NaN,NaN
01LeEm,0,1,162,Discrimination,0.0477987293703271,7.01486765864282,-45,0,0,1,0.881458500000008,5,4,0,NaN,NaN,NaN,NaN,NaN,NaN
01LeEm,0,1,163,Discrimination,0.0477987293703271,7.01486765864282,-45,0,NaN,NaN,NaN,NaN,0,0,NaN,NaN,NaN,NaN,NaN,NaN
01LeEm,0,1,164,Discrimination,0.0477987293703271,7.01486765864282,-45,0,0,1,0.599729900000057,6,3,0,NaN,NaN,NaN,NaN,NaN,NaN
01LeEm,0,1,165,Discrimination,0.0477987293703271,7.01486765864282,-45,0,0,1,0.833255199999257,6,3,0,NaN,NaN,NaN,NaN,NaN,NaN
01LeEm,0,1,166,Discrimination,0.0477987293703271,7.01486765864282,-45,0,0,1,1.48309769999923,4,0,2,NaN,NaN,NaN,NaN,NaN,NaN
01LeEm,0,1,167,Discrimination,0.0477987293703271,7.01486765864282,-45,0,0,1,0.830921400000079,6,4,0,NaN,NaN,NaN,NaN,NaN,NaN
01LeEm,0,1,168,Discrimination,0.0477987293703271,7.01486765864282,45,1,1,1,0.833766000000651,5,2,0,NaN,NaN,NaN,NaN,NaN,NaN
01LeEm,0,1,169,Discrimination,0.0477987293703271,7.01486765864282,45,1,0,0,1.13499629999933,4,3,1,NaN,NaN,NaN,NaN,NaN,NaN
01LeEm,0,1,170,Discrimination,0.0477987293703271,7.01486765864282,-45,0,0,1,0.767000300000291,6,3,1,NaN,NaN,NaN,NaN,NaN,NaN
01LeEm,0,1,171,Discrimination,0.0477987293703271,7.01486765864282,45,1,0,0,1.1176003999999,4,1,0,NaN,NaN,NaN,NaN,NaN,NaN
01LeEm,0,1,172,Discrimination,0.0477987293703271,7.01486765864282,45,1,0,0,0.883633800000098,6,2,0,NaN,NaN,NaN,NaN,NaN,NaN
01LeEm,0,1,173,Discrimination,0.0477987293703271,7.01486765864282,45,1,1,1,1.1833058000002,5,1,1,NaN,NaN,NaN,NaN,NaN,NaN
01LeEm,0,1,174,Discrimination,0.0477987293703271,7.01486765864282,45,1,1,1,1.03112150000015,6,1,0,NaN,NaN,NaN,NaN,NaN,NaN
01LeEm,0,1,175,Discrimination,0.0477987293703271,7.01486765864282,-45,0,0,1,1.03333850000035,6,5,0,NaN,NaN,NaN,NaN,NaN,NaN
01LeEm,0,1,176,Discrimination,0.0477987293703271,7.01486765864282,45,1,1,1,1.16728500000045,6,0,0,NaN,NaN,NaN,NaN,NaN,NaN
01LeEm,0,1,177,Discrimination,0.0477987293703271,7.01486765864282,-45,0,0,1,0.866444799999954,6,0,0,NaN,NaN,NaN,NaN,NaN,NaN
01LeEm,0,1,178,Discrimination,0.0477987293703271,7.01486765864282,-45,0,0,1,0.800122300000112,6,1,0,NaN,NaN,NaN,NaN,NaN,NaN
01LeEm,0,2,201,Discrimination,0.0477987293703271,7.01486765864282,-45,0,0,1,0.838407000000188,6,2,0,NaN,NaN,NaN,NaN,NaN,NaN
01LeEm,0,2,202,Discrimination,0.0477987293703271,7.01486765864282,45,1,1,1,0.797160600000097,6,0,0,NaN,NaN,NaN,NaN,NaN,NaN
01LeEm,0,2,203,Discrimination,0.0477987293703271,7.01486765864282,45,1,1,1,0.882403999999951,6,0,0,NaN,NaN,NaN,NaN,NaN,NaN
01LeEm,0,2,204,Discrimination,0.0477987293703271,7.01486765864282,-45,0,0,1,0.850269200000184,6,3,0,NaN,NaN,NaN,NaN,NaN,NaN
01LeEm,0,2,205,Discrimination,0.0477987293703271,7.01486765864282,45,1,0,0,1.26624979999997,2,1,0,NaN,NaN,NaN,NaN,NaN,NaN
01LeEm,0,2,206,Discrimination,0.0477987293703271,7.01486765864282,-45,0,0,1,0.833732000000055,6,2,0,NaN,NaN,NaN,NaN,NaN,NaN
01LeEm,0,2,207,Discrimination,0.0477987293703271,7.01486765864282,45,1,1,1,0.717448000000331,6,4,0,NaN,NaN,NaN,NaN,NaN,NaN
01LeEm,0,2,208,Discrimination,0.0477987293703271,7.01486765864282,45,1,1,1,0.750339299999723,6,1,0,NaN,NaN,NaN,NaN,NaN,NaN
01LeEm,0,2,209,Discrimination,0.0477987293703271,7.01486765864282,45,1,1,1,0.931806599999618,6,3,0,NaN,NaN,NaN,NaN,NaN,NaN
01LeEm,0,2,210,Discrimination,0.0477987293703271,7.01486765864282,45,1,0,0,1.1847216999995,6,0,0,NaN,NaN,NaN,NaN,NaN,NaN
01LeEm,0,2,211,Discrimination,0.0477987293703271,7.01486765864282,-45,0,1,0,0.883626699999695,6,3,0,NaN,NaN,NaN,NaN,NaN,NaN
01LeEm,0,2,212,Discrimination,0.0477987293703271,7.01486765864282,45,1,1,1,0.766190000000279,6,5,0,NaN,NaN,NaN,NaN,NaN,NaN
01LeEm,0,2,213,Discrimination,0.0477987293703271,7.01486765864282,-45,0,0,1,0.816438500000004,5,0,1,NaN,NaN,NaN,NaN,NaN,NaN
01LeEm,0,2,214,Discrimination,0.0477987293703271,7.01486765864282,-45,0,0,1,1.30019730000004,4,1,2,NaN,NaN,NaN,NaN,NaN,NaN
01LeEm,0,2,215,Discrimination,0.0477987293703271,7.01486765864282,-45,0,1,0,1.1000124000002,6,4,0,NaN,NaN,NaN,NaN,NaN,NaN
01LeEm,0,2,216,Discrimination,0.0477987293703271,7.01486765864282,-45,0,0,1,0.783730699999978,6,4,0,NaN,NaN,NaN,NaN,NaN,NaN
01LeEm,0,2,217,Discrimination,0.0477987293703271,7.01486765864282,45,1,1,1,0.78290939999988,6,9,0,NaN,NaN,NaN,NaN,NaN,NaN
01LeEm,0,2,218,Discrimination,0.0477987293703271,7.01486765864282,45,1,0,0,0.800181099999463,6,5,0,NaN,NaN,NaN,NaN,NaN,NaN
01LeEm,0,2,219,Discrimination,0.0477987293703271,7.01486765864282,45,1,1,1,0.867708899999343,6,4,0,NaN,NaN,NaN,NaN,NaN,NaN
01LeEm,0,2,220,Discrimination,0.0477987293703271,7.01486765864282,-45,0,0,1,0.900124699999651,6,2,0,NaN,NaN,NaN,NaN,NaN,NaN
01LeEm,0,2,221,Discrimination,0.0477987293703271,7.01486765864282,45,1,0,0,0.949935200000255,4,1,0,NaN,NaN,NaN,NaN,NaN,NaN
01LeEm,0,2,222,Discrimination,0.0477987293703271,7.01486765864282,-45,0,0,1,0.9980644999996,6,0,0,NaN,NaN,NaN,NaN,NaN,NaN
01LeEm,0,2,223,Discrimination,0.0477987293703271,7.01486765864282,-45,0,0,1,0.783555400000296,3,2,1,NaN,NaN,NaN,NaN,NaN,NaN
01LeEm,0,2,224,Discrimination,0.0477987293703271,7.01486765864282,-45,0,0,1,0.800597800000105,6,5,0,NaN,NaN,NaN,NaN,NaN,NaN
01LeEm,0,2,225,Discrimination,0.0477987293703271,7.01486765864282,45,1,0,0,1.03350090000004,5,0,0,NaN,NaN,NaN,NaN,NaN,NaN
01LeEm,0,2,226,Discrimination,0.0477987293703271,7.01486765864282,-45,0,0,1,0.718546299999616,6,0,0,NaN,NaN,NaN,NaN,NaN,NaN
01LeEm,0,3,327,Discrimination,0.0477987293703271,6.5,45,1,0,0,0.978773799999544,3,0,1,NaN,NaN,NaN,NaN,NaN,NaN
01LeEm,0,3,328,Discrimination,0.0477987293703271,6.5,-45,0,0,1,1.00088800000049,5,0,1,NaN,NaN,NaN,NaN,NaN,NaN
01LeEm,0,3,329,Discrimination,0.0477987293703271,6.5,45,1,0,0,1.09995690000051,3,1,2,NaN,NaN,NaN,NaN,NaN,NaN
01LeEm,0,3,330,Discrimination,0.0477987293703271,6.5,-45,0,0,1,0.866394000000582,6,0,0,NaN,NaN,NaN,NaN,NaN,NaN
01LeEm,0,3,331,Discrimination,0.0477987293703271,6.5,45,1,0,0,1.26784860000043,5,0,0,NaN,NaN,NaN,NaN,NaN,NaN
01LeEm,0,3,332,Discrimination,0.0477987293703271,6.5,-45,0,0,1,0.867056900000534,4,2,2,NaN,NaN,NaN,NaN,NaN,NaN
01LeEm,0,3,333,Discrimination,0.0477987293703271,6.5,45,1,1,1,0.584685199999512,6,2,0,NaN,NaN,NaN,NaN,NaN,NaN
01LeEm,0,3,334,Discrimination,0.0477987293703271,6.5,45,1,0,0,1.05308239999977,3,0,2,NaN,NaN,NaN,NaN,NaN,NaN
01LeEm,0,3,335,Discrimination,0.0477987293703271,6.5,45,1,1,1,0.984739999999874,6,5,0,NaN,NaN,NaN,NaN,NaN,NaN
01LeEm,0,3,336,Discrimination,0.0477987293703271,6.5,-45,0,0,1,0.766907599999286,6,3,0,NaN,NaN,NaN,NaN,NaN,NaN
01LeEm,0,3,337,Discrimination,0.0477987293703271,6.5,45,1,1,1,1.13133980000021,4,2,0,NaN,NaN,NaN,NaN,NaN,NaN
01LeEm,0,3,338,Discrimination,0.0477987293703271,6.5,-45,0,0,1,0.850584200000412,3,1,0,NaN,NaN,NaN,NaN,NaN,NaN
01LeEm,0,3,339,Discrimination,0.0477987293703271,6.5,-45,0,0,1,1.26730570000018,6,5,1,NaN,NaN,NaN,NaN,NaN,NaN
01LeEm,0,3,340,Discrimination,0.0477987293703271,6.5,45,1,1,1,1.00023810000039,6,1,0,NaN,NaN,NaN,NaN,NaN,NaN
01LeEm,0,3,341,Discrimination,0.0477987293703271,6.5,45,1,1,1,0.898245100000167,6,4,0,NaN,NaN,NaN,NaN,NaN,NaN
01LeEm,0,3,342,Discrimination,0.0477987293703271,6.5,45,1,1,1,0.750276299999314,6,4,0,NaN,NaN,NaN,NaN,NaN,NaN
01LeEm,0,3,343,Discrimination,0.0477987293703271,6.5,-45,0,1,0,1.01933989999998,4,2,0,NaN,NaN,NaN,NaN,NaN,NaN
01LeEm,0,3,344,Discrimination,0.0477987293703271,6.5,-45,0,0,1,0.91668910000044,4,3,0,NaN,NaN,NaN,NaN,NaN,NaN
01LeEm,0,3,345,Discrimination,0.0477987293703271,6.5,-45,0,0,1,1.30075809999926,4,0,1,NaN,NaN,NaN,NaN,NaN,NaN
01LeEm,0,3,346,Discrimination,0.0477987293703271,6.5,-45,0,1,0,0.798472100000254,5,3,0,NaN,NaN,NaN,NaN,NaN,NaN
01LeEm,0,3,347,Discrimination,0.0477987293703271,6.5,-45,0,0,1,1.2004052000002,5,2,0,NaN,NaN,NaN,NaN,NaN,NaN
01LeEm,0,3,348,Discrimination,0.0477987293703271,6.5,-45,0,0,1,1.41672350000044,3,0,3,NaN,NaN,NaN,NaN,NaN,NaN
01LeEm,0,3,349,Discrimination,0.0477987293703271,6.5,45,1,1,1,0.866680000000088,6,3,0,NaN,NaN,NaN,NaN,NaN,NaN
01LeEm,0,3,350,Discrimination,0.0477987293703271,6.5,45,1,1,1,0.850055599999905,6,1,0,NaN,NaN,NaN,NaN,NaN,NaN
01LeEm,0,3,351,Discrimination,0.0477987293703271,6.5,-45,0,1,0,1.00001169999996,2,0,2,NaN,NaN,NaN,NaN,NaN,NaN
01LeEm,0,3,352,Discrimination,0.0477987293703271,6.5,45,1,1,1,1.13356560000011,2,1,1,NaN,NaN,NaN,NaN,NaN,NaN
01LeEm,0,4,453,Discrimination,0.0477987293703271,6.5,45,1,1,1,0.832718000000568,6,3,0,NaN,NaN,NaN,NaN,NaN,NaN
01LeEm,0,4,454,Discrimination,0.0477987293703271,6.5,45,1,0,0,1.26884789999986,4,2,0,NaN,NaN,NaN,NaN,NaN,NaN
01LeEm,0,4,455,Discrimination,0.0477987293703271,6.5,45,1,NaN,NaN,NaN,NaN,0,0,NaN,NaN,NaN,NaN,NaN,NaN
01LeEm,0,4,456,Discrimination,0.0477987293703271,6.5,-45,0,0,1,0.799968700000136,5,1,3,NaN,NaN,NaN,NaN,NaN,NaN
01LeEm,0,4,457,Discrimination,0.0477987293703271,6.5,-45,0,0,1,1.06498159999956,5,4,0,NaN,NaN,NaN,NaN,NaN,NaN
01LeEm,0,4,458,Discrimination,0.0477987293703271,6.5,-45,0,1,0,0.950108999999429,2,2,2,NaN,NaN,NaN,NaN,NaN,NaN
01LeEm,0,4,459,Discrimination,0.0477987293703271,6.5,45,1,1,1,0.717055099999925,6,3,0,NaN,NaN,NaN,NaN,NaN,NaN
01LeEm,0,4,460,Discrimination,0.0477987293703271,6.5,-45,0,0,1,0.764494800000648,6,6,0,NaN,NaN,NaN,NaN,NaN,NaN
01LeEm,0,4,461,Discrimination,0.0477987293703271,6.5,45,1,1,1,0.917085900000529,5,3,0,NaN,NaN,NaN,NaN,NaN,NaN
01LeEm,0,4,462,Discrimination,0.0477987293703271,6.5,-45,0,0,1,0.83391920000031,6,4,0,NaN,NaN,NaN,NaN,NaN,NaN
01LeEm,0,4,463,Discrimination,0.0477987293703271,6.5,-45,0,1,0,1.00018100000034,2,0,3,NaN,NaN,NaN,NaN,NaN,NaN
01LeEm,0,4,464,Discrimination,0.0477987293703271,6.5,45,1,1,1,1.00022880000051,4,1,2,NaN,NaN,NaN,NaN,NaN,NaN
01LeEm,0,4,465,Discrimination,0.0477987293703271,6.5,-45,0,0,1,0.716451600000255,6,3,0,NaN,NaN,NaN,NaN,NaN,NaN
01LeEm,0,4,466,Discrimination,0.0477987293703271,6.5,45,1,0,0,1.18299990000014,4,2,0,NaN,NaN,NaN,NaN,NaN,NaN
01LeEm,0,4,467,Discrimination,0.0477987293703271,6.5,45,1,1,1,0.333758599999783,2,1,0,NaN,NaN,NaN,NaN,NaN,NaN
01LeEm,0,4,468,Discrimination,0.0477987293703271,6.5,-45,0,0,1,0.748619500000132,6,3,0,NaN,NaN,NaN,NaN,NaN,NaN
01LeEm,0,4,469,Discrimination,0.0477987293703271,6.5,45,1,1,1,0.699442099999942,6,5,0,NaN,NaN,NaN,NaN,NaN,NaN
01LeEm,0,4,470,Discrimination,0.0477987293703271,6.5,45,1,1,1,0.750077300000157,6,4,0,NaN,NaN,NaN,NaN,NaN,NaN
01LeEm,0,4,471,Discrimination,0.0477987293703271,6.5,45,1,1,1,0.716681300000346,6,6,0,NaN,NaN,NaN,NaN,NaN,NaN
01LeEm,0,4,472,Discrimination,0.0477987293703271,6.5,-45,0,0,1,0.733779199999844,6,6,0,NaN,NaN,NaN,NaN,NaN,NaN
01LeEm,0,4,473,Discrimination,0.0477987293703271,6.5,45,1,1,1,1.08409219999976,5,3,0,NaN,NaN,NaN,NaN,NaN,NaN
01LeEm,0,4,474,Discrimination,0.0477987293703271,6.5,-45,0,0,1,0.650509099999908,6,4,0,NaN,NaN,NaN,NaN,NaN,NaN
01LeEm,0,4,475,Discrimination,0.0477987293703271,6.5,-45,0,0,1,0.716850200000408,6,5,0,NaN,NaN,NaN,NaN,NaN,NaN
01LeEm,0,4,476,Discrimination,0.0477987293703271,6.5,-45,0,0,1,0.384277400000428,5,1,2,NaN,NaN,NaN,NaN,NaN,NaN
01LeEm,0,4,477,Discrimination,0.0477987293703271,6.5,-45,0,NaN,NaN,NaN,NaN,0,0,NaN,NaN,NaN,NaN,NaN,NaN
01LeEm,0,4,478,Discrimination,0.0477987293703271,6.5,45,1,0,0,0.983173699999497,4,1,2,NaN,NaN,NaN,NaN,NaN,NaN
01LeEm,0,1,127,Detection,0,7.01486765864282,0.782878636135307,0,0,1,0.835405099999662,6,5,0,NaN,NaN,NaN,NaN,NaN,NaN
01LeEm,0,1,128,Detection,0.0726386855078125,7.01486765864282,0.377098776164206,1,1,1,0.900596499999665,6,4,0,NaN,NaN,NaN,NaN,NaN,NaN
01LeEm,0,1,129,Detection,0.0726386855078125,7.01486765864282,0.516187579777698,1,1,1,0.951080900000306,6,3,0,NaN,NaN,NaN,NaN,NaN,NaN
01LeEm,0,1,130,Detection,0,7.01486765864282,0.462546685061327,0,0,1,0.800284500000089,6,4,0,NaN,NaN,NaN,NaN,NaN,NaN
01LeEm,0,1,131,Detection,0,7.01486765864282,0.743911886128151,0,0,1,0.900526899999932,6,4,0,NaN,NaN,NaN,NaN,NaN,NaN
01LeEm,0,1,132,Detection,0,7.01486765864282,0.856396194189875,0,0,1,1.03350470000078,6,1,0,NaN,NaN,NaN,NaN,NaN,NaN
01LeEm,0,1,133,Detection,0.0726386855078125,7.01486765864282,0.0233243071056789,1,1,1,0.950301200000467,6,3,0,NaN,NaN,NaN,NaN,NaN,NaN
01LeEm,0,1,134,Detection,0,7.01486765864282,0.565113162195769,0,0,1,0.801577799999905,6,3,0,NaN,NaN,NaN,NaN,NaN,NaN
01LeEm,0,1,135,Detection,0.0726386855078125,7.01486765864282,0.0739446097819373,1,1,1,0.816574200000105,6,1,0,NaN,NaN,NaN,NaN,NaN,NaN
01LeEm,0,1,136,Detection,0.0726386855078125,7.01486765864282,1.44735856768882,1,1,1,0.917461600000024,6,6,0,NaN,NaN,NaN,NaN,NaN,NaN
01LeEm,0,1,137,Detection,0,7.01486765864282,0.254059207895726,0,0,1,0.800158299999566,6,3,0,NaN,NaN,NaN,NaN,NaN,NaN
01LeEm,0,1,138,Detection,0.0726386855078125,7.01486765864282,0.0501887924320417,1,1,1,0.816340600000331,6,0,0,NaN,NaN,NaN,NaN,NaN,NaN
01LeEm,0,1,139,Detection,0,7.01486765864282,-1.55135244285992,0,0,1,1.16653349999979,1,0,4,NaN,NaN,NaN,NaN,NaN,NaN
01LeEm,0,1,140,Detection,0.0726386855078125,7.01486765864282,-0.564974541619855,1,1,1,0.883646299999782,6,2,0,NaN,NaN,NaN,NaN,NaN,NaN
01LeEm,0,1,141,Detection,0.0726386855078125,7.01486765864282,-0.369798256434647,1,1,1,0.967181800000617,6,5,0,NaN,NaN,NaN,NaN,NaN,NaN
01LeEm,0,1,142,Detection,0.0726386855078125,7.01486765864282,1.96011195775935,1,1,1,0.849892600000203,6,4,0,NaN,NaN,NaN,NaN,NaN,NaN
01LeEm,0,1,143,Detection,0,7.01486765864282,-0.225284248414768,0,0,1,0.916301299999759,6,3,0,NaN,NaN,NaN,NaN,NaN,NaN
01LeEm,0,1,144,Detection,0,7.01486765864282,0.28817986872823,0,1,0,0.798199299999396,5,1,1,NaN,NaN,NaN,NaN,NaN,NaN
01LeEm,0,1,145,Detection,0.0726386855078125,7.01486765864282,2.65018293096109,1,1,1,0.949298900000031,6,2,0,NaN,NaN,NaN,NaN,NaN,NaN
01LeEm,0,1,146,Detection,0,7.01486765864282,-1.14634234131777,0,0,1,0.966920299999401,6,1,0,NaN,NaN,NaN,NaN,NaN,NaN
01LeEm,0,1,147,Detection,0.0726386855078125,7.01486765864282,0.555904774274988,1,1,1,0.766829399999551,6,3,0,NaN,NaN,NaN,NaN,NaN,NaN
01LeEm,0,1,148,Detection,0,7.01486765864282,1.34761051912961,0,0,1,1.05014480000045,6,5,0,NaN,NaN,NaN,NaN,NaN,NaN
01LeEm,0,1,149,Detection,0.0726386855078125,7.01486765864282,-0.597711104866941,1,1,1,0.88383739999972,6,2,0,NaN,NaN,NaN,NaN,NaN,NaN
01LeEm,0,1,150,Detection,0,7.01486765864282,0.0645730374164674,0,0,1,0.850088099999994,6,5,0,NaN,NaN,NaN,NaN,NaN,NaN
01LeEm,0,1,151,Detection,0.0726386855078125,7.01486765864282,-1.08572617346316,1,1,1,0.916640600000392,6,5,0,NaN,NaN,NaN,NaN,NaN,NaN
01LeEm,0,1,152,Detection,0,7.01486765864282,0.384570791045504,0,0,1,0.782593800000541,6,4,0,NaN,NaN,NaN,NaN,NaN,NaN
01LeEm,0,2,253,Detection,0,7.01486765864282,-1.86210077381211,0,0,1,1.21660470000006,6,3,0,NaN,NaN,NaN,NaN,NaN,NaN
01LeEm,0,2,254,Detection,0.0690067512324219,7.01486765864282,-0.357228163603596,1,0,0,1.21838030000072,4,2,0,NaN,NaN,NaN,NaN,NaN,NaN
01LeEm,0,2,255,Detection,0.0690067512324219,7.01486765864282,0.0039029198481565,1,1,1,0.817089000000124,6,3,0,NaN,NaN,NaN,NaN,NaN,NaN
01LeEm,0,2,256,Detection,0,7.01486765864282,-1.30994093036016,0,0,1,1.10019450000073,6,5,0,NaN,NaN,NaN,NaN,NaN,NaN
01LeEm,0,2,257,Detection,0,7.01486765864282,-0.443355176458098,0,0,1,1.23201489999974,5,2,2,NaN,NaN,NaN,NaN,NaN,NaN
01LeEm,0,2,258,Detection,0.0690067512324219,7.01486765864282,0.679556433317531,1,1,1,0.783861699999761,6,6,0,NaN,NaN,NaN,NaN,NaN,NaN
01LeEm,0,2,259,Detection,0.0690067512324219,7.01486765864282,-1.52195113241552,1,0,0,1.43437949999952,1,0,1,NaN,NaN,NaN,NaN,NaN,NaN
01LeEm,0,2,260,Detection,0.0690067512324219,7.01486765864282,-0.104698649884016,1,1,1,0.916791300000114,6,5,0,NaN,NaN,NaN,NaN,NaN,NaN
01LeEm,0,2,261,Detection,0.0690067512324219,7.01486765864282,1.11768379601344,1,1,1,0.917527999999947,6,1,0,NaN,NaN,NaN,NaN,NaN,NaN
01LeEm,0,2,262,Detection,0,7.01486765864282,1.57529984642843,0,0,1,1.03125799999998,5,5,2,NaN,NaN,NaN,NaN,NaN,NaN
01LeEm,0,2,263,Detection,0,7.01486765864282,-0.226505223996823,0,0,1,0.883019500000046,6,4,0,NaN,NaN,NaN,NaN,NaN,NaN
01LeEm,0,2,264,Detection,0.0690067512324219,7.01486765864282,-1.09326619923502,1,1,1,0.984450799999649,6,3,0,NaN,NaN,NaN,NaN,NaN,NaN
01LeEm,0,2,265,Detection,0.0690067512324219,7.01486765864282,1.01324125857588,1,1,1,0.700527300000431,6,4,0,NaN,NaN,NaN,NaN,NaN,NaN
01LeEm,0,2,266,Detection,0,7.01486765864282,0.53911995044385,0,0,1,1.18291849999969,5,2,0,NaN,NaN,NaN,NaN,NaN,NaN
01LeEm,0,2,267,Detection,0,7.01486765864282,-0.599517613771341,0,0,1,0.947480900000301,6,6,0,NaN,NaN,NaN,NaN,NaN,NaN
01LeEm,0,2,268,Detection,0,7.01486765864282,-0.124023519503314,0,1,0,0.832259800000429,6,1,0,NaN,NaN,NaN,NaN,NaN,NaN
01LeEm,0,2,269,Detection,0.0690067512324219,7.01486765864282,0.0798904871674852,1,1,1,0.831966900000225,6,4,0,NaN,NaN,NaN,NaN,NaN,NaN
01LeEm,0,2,270,Detection,0,7.01486765864282,0.839985382909038,0,0,1,0.78134720000071,6,1,0,NaN,NaN,NaN,NaN,NaN,NaN
01LeEm,0,2,271,Detection,0,7.01486765864282,-1.80964764158476,0,0,1,0.867294499999844,6,2,0,NaN,NaN,NaN,NaN,NaN,NaN
01LeEm,0,2,272,Detection,0,7.01486765864282,0.705708460593508,0,0,1,0.832891000000018,6,1,0,NaN,NaN,NaN,NaN,NaN,NaN
01LeEm,0,2,273,Detection,0.0690067512324219,7.01486765864282,1.0707457973348,1,1,1,1.05056890000014,6,5,0,NaN,NaN,NaN,NaN,NaN,NaN
01LeEm,0,2,274,Detection,0.0690067512324219,7.01486765864282,0.303435762775608,1,1,1,0.800099899999623,6,4,0,NaN,NaN,NaN,NaN,NaN,NaN
01LeEm,0,2,275,Detection,0.0690067512324219,7.01486765864282,-0.0852667727596649,1,1,1,0.799984199999926,6,2,0,NaN,NaN,NaN,NaN,NaN,NaN
01LeEm,0,2,276,Detection,0,7.01486765864282,0.740951469283928,0,0,1,1.01629800000046,6,2,0,NaN,NaN,NaN,NaN,NaN,NaN
01LeEm,0,2,277,Detection,0.0690067512324219,7.01486765864282,-0.0972796968654522,1,1,1,0.850529899999856,6,2,0,NaN,NaN,NaN,NaN,NaN,NaN
01LeEm,0,2,278,Detection,0,7.01486765864282,-0.490515117328891,0,0,1,0.818973200000073,6,4,0,NaN,NaN,NaN,NaN,NaN,NaN
01LeEm,0,3,301,Detection,0.0655564136708008,6.5,-0.0995686885480132,1,1,1,0.907081100000141,6,2,0,NaN,NaN,NaN,NaN,NaN,NaN
01LeEm,0,3,302,Detection,0.0655564136708008,6.5,-1.37264569267,1,1,1,0.801833299999998,6,1,0,NaN,NaN,NaN,NaN,NaN,NaN
01LeEm,0,3,303,Detection,0.0655564136708008,6.5,-0.483285258735557,1,1,1,0.9168695999997,6,2,0,NaN,NaN,NaN,NaN,NaN,NaN
01LeEm,0,3,304,Detection,0,6.5,-0.913552095251359,0,0,1,1.05139650000001,5,1,2,NaN,NaN,NaN,NaN,NaN,NaN
01LeEm,0,3,305,Detection,0.0655564136708008,6.5,1.62024871318396,1,1,1,0.883116199999677,6,4,0,NaN,NaN,NaN,NaN,NaN,NaN
01LeEm,0,3,306,Detection,0,6.5,-1.29180169998049,0,0,1,0.833452699999725,6,4,0,NaN,NaN,NaN,NaN,NaN,NaN
01LeEm,0,3,307,Detection,0,6.5,0.621026301569008,0,0,1,0.866820899999766,6,4,0,NaN,NaN,NaN,NaN,NaN,NaN
01LeEm,0,3,308,Detection,0.0655564136708008,6.5,-0.338314209344044,1,1,1,0.918610599999738,6,7,0,NaN,NaN,NaN,NaN,NaN,NaN
01LeEm,0,3,309,Detection,0,6.5,-0.352992602486088,0,0,1,0.716686499999923,6,2,0,NaN,NaN,NaN,NaN,NaN,NaN
01LeEm,0,3,310,Detection,0,6.5,1.41265027413707,0,0,1,0.800738599999931,6,4,0,NaN,NaN,NaN,NaN,NaN,NaN
01LeEm,0,3,311,Detection,0,6.5,-0.803224106834699,0,0,1,0.833522100000664,6,2,0,NaN,NaN,NaN,NaN,NaN,NaN
01LeEm,0,3,312,Detection,0.0655564136708008,6.5,0.225882369982311,1,1,1,0.887675500000114,6,5,0,NaN,NaN,NaN,NaN,NaN,NaN
01LeEm,0,3,313,Detection,0.0655564136708008,6.5,0.824332619623853,1,1,1,1.06709610000053,6,0,0,NaN,NaN,NaN,NaN,NaN,NaN
01LeEm,0,3,314,Detection,0,6.5,-1.13304048862411,0,0,1,0.784172900000158,6,2,0,NaN,NaN,NaN,NaN,NaN,NaN
01LeEm,0,3,315,Detection,0.0655564136708008,6.5,0.591545356203278,1,0,0,1.1340952999999,1,0,2,NaN,NaN,NaN,NaN,NaN,NaN
01LeEm,0,3,316,Detection,0.0655564136708008,6.5,2.06145566895387,1,0,0,0.767161900000247,6,3,0,NaN,NaN,NaN,NaN,NaN,NaN
01LeEm,0,3,317,Detection,0,6.5,-1.4139230526579,0,0,1,0.766793400000097,6,4,0,NaN,NaN,NaN,NaN,NaN,NaN
01LeEm,0,3,318,Detection,0,6.5,-1.06532630659578,0,0,1,0.798318799999834,6,2,0,NaN,NaN,NaN,NaN,NaN,NaN
01LeEm,0,3,319,Detection,0,6.5,0.286478753286555,0,0,1,0.83197089999976,6,2,0,NaN,NaN,NaN,NaN,NaN,NaN
01LeEm,0,3,320,Detection,0.0655564136708008,6.5,-0.308333989455245,1,1,1,1.25011470000027,3,0,3,NaN,NaN,NaN,NaN,NaN,NaN
01LeEm,0,3,321,Detection,0,6.5,1.1233863309116,0,0,1,0.766194800000449,6,1,0,NaN,NaN,NaN,NaN,NaN,NaN
01LeEm,0,3,322,Detection,0.0655564136708008,6.5,-0.373935409236447,1,1,1,1.06653029999961,4,0,3,NaN,NaN,NaN,NaN,NaN,NaN
01LeEm,0,3,323,Detection,0,6.5,-1.988895612714,0,0,1,0.716891600000054,6,3,0,NaN,NaN,NaN,NaN,NaN,NaN
01LeEm,0,3,324,Detection,0.0655564136708008,6.5,0.222693510103595,1,1,1,0.987562700000126,5,1,1,NaN,NaN,NaN,NaN,NaN,NaN
01LeEm,0,3,325,Detection,0.0655564136708008,6.5,-0.53983797735746,1,NaN,NaN,NaN,NaN,0,0,NaN,NaN,NaN,NaN,NaN,NaN
01LeEm,0,3,326,Detection,0,6.5,0.528755551849079,0,0,1,0.64781800000037,6,2,0,NaN,NaN,NaN,NaN,NaN,NaN
01LeEm,0,4,427,Detection,0,6.5,1.18531453933334,0,0,1,0.950101700000232,6,0,0,NaN,NaN,NaN,NaN,NaN,NaN
01LeEm,0,4,428,Detection,0.057,6.5,0.538437094366814,1,0,0,0.666636799999651,6,0,0,NaN,NaN,NaN,NaN,NaN,NaN
01LeEm,0,4,429,Detection,0,6.5,0.237369303787853,0,0,1,0.800125000000662,6,5,0,NaN,NaN,NaN,NaN,NaN,NaN
01LeEm,0,4,430,Detection,0,6.5,-0.306981232056112,0,0,1,1.19962430000032,6,2,0,NaN,NaN,NaN,NaN,NaN,NaN
01LeEm,0,4,431,Detection,0,6.5,-3.00136269317813,0,0,1,1.01606160000028,6,2,0,NaN,NaN,NaN,NaN,NaN,NaN
01LeEm,0,4,432,Detection,0.057,6.5,0.125307509871231,1,NaN,NaN,NaN,NaN,0,0,NaN,NaN,NaN,NaN,NaN,NaN
01LeEm,0,4,433,Detection,0.057,6.5,-2.07120857821363,1,1,1,1.06655929999943,3,1,3,NaN,NaN,NaN,NaN,NaN,NaN
01LeEm,0,4,434,Detection,0.057,6.5,-2.2010387277353,1,1,1,1.16778979999981,5,4,0,NaN,NaN,NaN,NaN,NaN,NaN
01LeEm,0,4,435,Detection,0,6.5,0.0512610874404757,0,1,0,0.917487799999435,2,0,1,NaN,NaN,NaN,NaN,NaN,NaN
01LeEm,0,4,436,Detection,0,6.5,0.187756032250805,0,1,0,1.08159400000022,4,3,0,NaN,NaN,NaN,NaN,NaN,NaN
01LeEm,0,4,437,Detection,0.057,6.5,1.36684328200656,1,1,1,0.883446099999674,6,2,0,NaN,NaN,NaN,NaN,NaN,NaN
01LeEm,0,4,438,Detection,0.057,6.5,-1.24849162832975,1,1,1,0.783618800000113,6,2,0,NaN,NaN,NaN,NaN,NaN,NaN
01LeEm,0,4,439,Detection,0,6.5,-1.21796458687145,0,0,1,0.947356599999694,6,1,0,NaN,NaN,NaN,NaN,NaN,NaN
01LeEm,0,4,440,Detection,0,6.5,0.678800873591172,0,0,1,1.18310649999967,6,1,0,NaN,NaN,NaN,NaN,NaN,NaN
01LeEm,0,4,441,Detection,0.057,6.5,0.320002609452105,1,0,0,1.13323270000001,6,0,0,NaN,NaN,NaN,NaN,NaN,NaN
01LeEm,0,4,442,Detection,0,6.5,0.759405512125863,0,0,1,1.36648659999992,6,5,0,NaN,NaN,NaN,NaN,NaN,NaN
01LeEm,0,4,443,Detection,0.057,6.5,-2.49979171403088,1,0,0,0.917518100000052,6,4,0,NaN,NaN,NaN,NaN,NaN,NaN
01LeEm,0,4,444,Detection,0.057,6.5,-0.166613285123777,1,1,1,0.81709790000059,6,3,0,NaN,NaN,NaN,NaN,NaN,NaN
01LeEm,0,4,445,Detection,0,6.5,0.752835543666759,0,1,0,0.649413699999968,6,2,0,NaN,NaN,NaN,NaN,NaN,NaN
01LeEm,0,4,446,Detection,0,6.5,0.229926914365559,0,1,0,1.18318100000033,4,3,1,NaN,NaN,NaN,NaN,NaN,NaN
01LeEm,0,4,447,Detection,0.057,6.5,1.36096027805461,1,1,1,0.650181199999679,5,4,0,NaN,NaN,NaN,NaN,NaN,NaN
01LeEm,0,4,448,Detection,0.057,6.5,-0.682905216888394,1,1,1,0.800000000000182,6,3,0,NaN,NaN,NaN,NaN,NaN,NaN
01LeEm,0,4,449,Detection,0.057,6.5,0.213686030917703,1,NaN,NaN,NaN,NaN,0,0,NaN,NaN,NaN,NaN,NaN,NaN
01LeEm,0,4,450,Detection,0.057,6.5,0.0999362678808229,1,1,1,0.933408699999745,6,3,0,NaN,NaN,NaN,NaN,NaN,NaN
01LeEm,0,4,451,Detection,0,6.5,1.24930542918099,0,0,1,1.05014219999975,5,4,0,NaN,NaN,NaN,NaN,NaN,NaN
01LeEm,0,4,452,Detection,0,6.5,-0.104356956145673,0,0,1,0.85229580000032,6,2,0,NaN,NaN,NaN,NaN,NaN,NaN
01LeEm,0,1,101,Tilt,0.2,7.01486765864282,0,0,1,0,1.07608709999931,4,2,2,NaN,NaN,NaN,NaN,NaN,NaN
01LeEm,0,1,102,Tilt,0.2,7.01486765864282,-1.23236084106167,1,1,1,0.94934849999936,6,1,0,NaN,NaN,NaN,NaN,NaN,NaN
01LeEm,0,1,103,Tilt,0.2,7.01486765864282,1.56784877732528,1,1,1,0.949323000000732,6,0,0,NaN,NaN,NaN,NaN,NaN,NaN
01LeEm,0,1,104,Tilt,0.2,7.01486765864282,0.702564668336148,1,1,1,1.31581500000084,3,1,1,NaN,NaN,NaN,NaN,NaN,NaN
01LeEm,0,1,105,Tilt,0.2,7.01486765864282,-0.592416026822134,1,1,1,0.962956999999733,6,4,0,NaN,NaN,NaN,NaN,NaN,NaN
01LeEm,0,1,106,Tilt,0.2,7.01486765864282,-0,0,0,1,0.800352299999759,5,4,1,NaN,NaN,NaN,NaN,NaN,NaN
01LeEm,0,1,107,Tilt,0.2,7.01486765864282,0.701927879623781,1,1,1,0.951201100000617,5,1,0,NaN,NaN,NaN,NaN,NaN,NaN
01LeEm,0,1,108,Tilt,0.2,7.01486765864282,-0.390609593455965,1,0,0,1.26681700000063,5,3,0,NaN,NaN,NaN,NaN,NaN,NaN
01LeEm,0,1,109,Tilt,0.2,7.01486765864282,-0.345683085632372,1,0,0,0.899953800000731,6,2,0,NaN,NaN,NaN,NaN,NaN,NaN
01LeEm,0,1,110,Tilt,0.2,7.01486765864282,-0,0,0,1,0.918600200000583,6,3,0,NaN,NaN,NaN,NaN,NaN,NaN
01LeEm,0,1,111,Tilt,0.2,7.01486765864282,0.494847201694239,1,1,1,1.00010089999978,6,1,0,NaN,NaN,NaN,NaN,NaN,NaN
01LeEm,0,1,112,Tilt,0.2,7.01486765864282,0.193253029688078,1,0,0,1.23365550000017,6,5,0,NaN,NaN,NaN,NaN,NaN,NaN
01LeEm,0,1,113,Tilt,0.2,7.01486765864282,0,0,0,1,0.850239499999589,5,4,0,NaN,NaN,NaN,NaN,NaN,NaN
01LeEm,0,1,114,Tilt,0.2,7.01486765864282,0,0,0,1,0.966773699999976,6,2,0,NaN,NaN,NaN,NaN,NaN,NaN
01LeEm,0,1,115,Tilt,0.2,7.01486765864282,0,0,NaN,NaN,NaN,NaN,0,0,NaN,NaN,NaN,NaN,NaN,NaN
01LeEm,0,1,116,Tilt,0.2,7.01486765864282,0,0,1,0,0.966815900000256,5,3,2,NaN,NaN,NaN,NaN,NaN,NaN
01LeEm,0,1,117,Tilt,0.2,7.01486765864282,0.478254180454755,1,1,1,0.964721400000599,6,6,0,NaN,NaN,NaN,NaN,NaN,NaN
01LeEm,0,1,118,Tilt,0.2,7.01486765864282,-0,0,0,1,0.784481799999412,6,1,0,NaN,NaN,NaN,NaN,NaN,NaN
01LeEm,0,1,119,Tilt,0.2,7.01486765864282,2.44267525382143,1,1,1,0.833208499999273,6,2,0,NaN,NaN,NaN,NaN,NaN,NaN
01LeEm,0,1,120,Tilt,0.2,7.01486765864282,0,0,0,1,1.30118560000028,6,1,0,NaN,NaN,NaN,NaN,NaN,NaN
01LeEm,0,1,121,Tilt,0.2,7.01486765864282,0,0,0,1,0.767206500000611,6,3,0,NaN,NaN,NaN,NaN,NaN,NaN
01LeEm,0,1,122,Tilt,0.2,7.01486765864282,0,0,0,1,0.883446199999526,5,0,0,NaN,NaN,NaN,NaN,NaN,NaN
01LeEm,0,1,123,Tilt,0.2,7.01486765864282,-0,0,0,1,0.800194800000099,6,5,0,NaN,NaN,NaN,NaN,NaN,NaN
01LeEm,0,1,124,Tilt,0.2,7.01486765864282,-0.153023227109936,1,0,0,0.933349500000077,6,6,0,NaN,NaN,NaN,NaN,NaN,NaN
01LeEm,0,1,125,Tilt,0.2,7.01486765864282,0,0,0,1,0.800577100000737,6,4,0,NaN,NaN,NaN,NaN,NaN,NaN
01LeEm,0,1,126,Tilt,0.2,7.01486765864282,-0.592574351502953,1,1,1,1.15038690000074,6,1,0,NaN,NaN,NaN,NaN,NaN,NaN
01LeEm,0,2,227,Tilt,0.2,7.01486765864282,0.0145293238965801,1,0,0,0.79764780000005,6,4,0,NaN,NaN,NaN,NaN,NaN,NaN
01LeEm,0,2,228,Tilt,0.2,7.01486765864282,0.691456629739486,1,1,1,0.817451699999765,6,2,0,NaN,NaN,NaN,NaN,NaN,NaN
01LeEm,0,2,229,Tilt,0.2,7.01486765864282,-0,0,0,1,0.950080600000547,6,2,0,NaN,NaN,NaN,NaN,NaN,NaN
01LeEm,0,2,230,Tilt,0.2,7.01486765864282,0,0,0,1,0.717509799999789,6,4,0,NaN,NaN,NaN,NaN,NaN,NaN
01LeEm,0,2,231,Tilt,0.2,7.01486765864282,0,0,0,1,0.750383800000236,6,3,0,NaN,NaN,NaN,NaN,NaN,NaN
01LeEm,0,2,232,Tilt,0.2,7.01486765864282,-0,0,0,1,0.835367699999551,6,5,0,NaN,NaN,NaN,NaN,NaN,NaN
01LeEm,0,2,233,Tilt,0.2,7.01486765864282,-0,0,0,1,0.733851500000128,6,2,0,NaN,NaN,NaN,NaN,NaN,NaN
01LeEm,0,2,234,Tilt,0.2,7.01486765864282,-0,0,0,1,0.950013599999693,6,1,0,NaN,NaN,NaN,NaN,NaN,NaN
01LeEm,0,2,235,Tilt,0.2,7.01486765864282,1.67243143907133,1,1,1,0.783099899999797,6,1,0,NaN,NaN,NaN,NaN,NaN,NaN
01LeEm,0,2,236,Tilt,0.2,7.01486765864282,-0.0115462611488522,1,0,0,0.752160699999877,6,1,0,NaN,NaN,NaN,NaN,NaN,NaN
01LeEm,0,2,237,Tilt,0.2,7.01486765864282,-0.949982549666176,1,1,1,0.86526430000049,6,6,0,NaN,NaN,NaN,NaN,NaN,NaN
01LeEm,0,2,238,Tilt,0.2,7.01486765864282,-0,0,1,0,0.999625399999786,4,2,0,NaN,NaN,NaN,NaN,NaN,NaN
01LeEm,0,2,239,Tilt,0.2,7.01486765864282,0,0,1,0,1.48353810000026,2,1,0,NaN,NaN,NaN,NaN,NaN,NaN
01LeEm,0,2,240,Tilt,0.2,7.01486765864282,-1.05174151199245,1,0,0,1.03340169999956,1,1,3,NaN,NaN,NaN,NaN,NaN,NaN
01LeEm,0,2,241,Tilt,0.2,7.01486765864282,-1.20117320353009,1,1,1,0.899699299999156,6,3,0,NaN,NaN,NaN,NaN,NaN,NaN
01LeEm,0,2,242,Tilt,0.2,7.01486765864282,-1.42468768786715,1,1,1,1.16669009999987,6,1,0,NaN,NaN,NaN,NaN,NaN,NaN
01LeEm,0,2,243,Tilt,0.2,7.01486765864282,-0.267961275761653,1,1,1,0.950219000000288,6,1,0,NaN,NaN,NaN,NaN,NaN,NaN
01LeEm,0,2,244,Tilt,0.2,7.01486765864282,-0,0,1,0,0.783401400000002,5,1,0,NaN,NaN,NaN,NaN,NaN,NaN
01LeEm,0,2,245,Tilt,0.2,7.01486765864282,0,0,1,0,1.19978720000017,6,2,0,NaN,NaN,NaN,NaN,NaN,NaN
01LeEm,0,2,246,Tilt,0.2,7.01486765864282,0,0,1,0,0.983744199999819,5,2,1,NaN,NaN,NaN,NaN,NaN,NaN
01LeEm,0,2,247,Tilt,0.2,7.01486765864282,0,0,0,1,0.767639900000177,6,1,0,NaN,NaN,NaN,NaN,NaN,NaN
01LeEm,0,2,248,Tilt,0.2,7.01486765864282,-0,0,1,0,1.00036079999973,2,1,2,NaN,NaN,NaN,NaN,NaN,NaN
01LeEm,0,2,249,Tilt,0.2,7.01486765864282,0.450485988067884,1,NaN,NaN,NaN,NaN,0,0,NaN,NaN,NaN,NaN,NaN,NaN
01LeEm,0,2,250,Tilt,0.2,7.01486765864282,-0.246527542256072,1,0,0,0.782918099999733,6,3,0,NaN,NaN,NaN,NaN,NaN,NaN
01LeEm,0,2,251,Tilt,0.2,7.01486765864282,0.594349052796862,1,1,1,0.748460100000557,6,4,0,NaN,NaN,NaN,NaN,NaN,NaN
01LeEm,0,2,252,Tilt,0.2,7.01486765864282,-0.0991695007195897,1,0,0,0.766531000000214,6,3,0,NaN,NaN,NaN,NaN,NaN,NaN
01LeEm,0,3,353,Tilt,0.2,6.5,0.374363269878001,1,0,0,0.799842800000079,6,4,0,NaN,NaN,NaN,NaN,NaN,NaN
01LeEm,0,3,354,Tilt,0.2,6.5,-0.692880738722076,1,1,1,0.800599399999555,6,2,0,NaN,NaN,NaN,NaN,NaN,NaN
01LeEm,0,3,355,Tilt,0.2,6.5,-0,0,0,1,0.832088099999964,6,3,0,NaN,NaN,NaN,NaN,NaN,NaN
01LeEm,0,3,356,Tilt,0.2,6.5,-1.37027515919312,1,1,1,0.716879699999481,6,4,0,NaN,NaN,NaN,NaN,NaN,NaN
01LeEm,0,3,357,Tilt,0.2,6.5,0,0,0,1,0.766631899999993,6,3,0,NaN,NaN,NaN,NaN,NaN,NaN
01LeEm,0,3,358,Tilt,0.2,6.5,-0.071506862620626,1,1,1,1.10014359999968,5,2,1,NaN,NaN,NaN,NaN,NaN,NaN
01LeEm,0,3,359,Tilt,0.2,6.5,-0.189650393050306,1,0,0,0.881687699999929,5,2,0,NaN,NaN,NaN,NaN,NaN,NaN
01LeEm,0,3,360,Tilt,0.2,6.5,-0,0,0,1,0.800273899999411,6,2,0,NaN,NaN,NaN,NaN,NaN,NaN
01LeEm,0,3,361,Tilt,0.2,6.5,0,0,0,1,0.766318000000865,6,4,0,NaN,NaN,NaN,NaN,NaN,NaN
01LeEm,0,3,362,Tilt,0.2,6.5,-1.1606810922607,1,1,1,0.749773100000311,6,4,0,NaN,NaN,NaN,NaN,NaN,NaN
01LeEm,0,3,363,Tilt,0.2,6.5,-0.0873719924831118,1,0,0,0.782257600000776,6,3,0,NaN,NaN,NaN,NaN,NaN,NaN
01LeEm,0,3,364,Tilt,0.2,6.5,0,0,0,1,0.699387100000422,6,2,0,NaN,NaN,NaN,NaN,NaN,NaN
01LeEm,0,3,365,Tilt,0.2,6.5,-0,0,1,0,1.2996948,4,3,1,NaN,NaN,NaN,NaN,NaN,NaN
01LeEm,0,3,366,Tilt,0.2,6.5,0,0,0,1,0.967415899999651,6,6,0,NaN,NaN,NaN,NaN,NaN,NaN
01LeEm,0,3,367,Tilt,0.2,6.5,-0.439066692002704,1,1,1,0.801915899999585,6,4,0,NaN,NaN,NaN,NaN,NaN,NaN
01LeEm,0,3,368,Tilt,0.2,6.5,-0.553320354094911,1,1,1,0.916101900000285,4,0,2,NaN,NaN,NaN,NaN,NaN,NaN
01LeEm,0,3,369,Tilt,0.2,6.5,0,0,0,1,0.699660300000687,6,3,0,NaN,NaN,NaN,NaN,NaN,NaN
01LeEm,0,3,370,Tilt,0.2,6.5,-0,0,0,1,1.04993099999956,6,3,0,NaN,NaN,NaN,NaN,NaN,NaN
01LeEm,0,3,371,Tilt,0.2,6.5,-0,0,0,1,0.715169199999764,6,3,0,NaN,NaN,NaN,NaN,NaN,NaN
01LeEm,0,3,372,Tilt,0.2,6.5,2.20097266773682,1,1,1,0.666483900000458,6,3,0,NaN,NaN,NaN,NaN,NaN,NaN
01LeEm,0,3,373,Tilt,0.2,6.5,-0.578505302291011,1,1,1,0.883549999999559,6,5,0,NaN,NaN,NaN,NaN,NaN,NaN
01LeEm,0,3,374,Tilt,0.2,6.5,0,0,NaN,NaN,NaN,NaN,1,0,NaN,NaN,NaN,NaN,NaN,NaN
01LeEm,0,3,375,Tilt,0.2,6.5,-1.26273163397431,1,1,1,0.666839599999548,6,5,0,NaN,NaN,NaN,NaN,NaN,NaN
01LeEm,0,3,376,Tilt,0.2,6.5,-0,0,0,1,0.814841299999898,6,2,0,NaN,NaN,NaN,NaN,NaN,NaN
01LeEm,0,3,377,Tilt,0.2,6.5,-0.25283525561634,1,1,1,0.916756300000088,6,3,1,NaN,NaN,NaN,NaN,NaN,NaN
01LeEm,0,3,378,Tilt,0.2,6.5,0,0,0,1,0.749856899999941,6,2,0,NaN,NaN,NaN,NaN,NaN,NaN
01LeEm,0,4,401,Tilt,0.2,6.5,-2.4593134329754,1,1,1,0.642119099999945,6,1,0,NaN,NaN,NaN,NaN,NaN,NaN
01LeEm,0,4,402,Tilt,0.2,6.5,0.210108225128741,1,0,0,0.73403159999998,6,1,0,NaN,NaN,NaN,NaN,NaN,NaN
01LeEm,0,4,403,Tilt,0.2,6.5,-0,0,0,1,0.769800099999884,6,4,0,NaN,NaN,NaN,NaN,NaN,NaN
01LeEm,0,4,404,Tilt,0.2,6.5,-0.879293097433642,1,1,1,0.76707339999939,6,2,0,NaN,NaN,NaN,NaN,NaN,NaN
01LeEm,0,4,405,Tilt,0.2,6.5,0.0821042387431044,1,0,0,0.712418899999648,6,1,0,NaN,NaN,NaN,NaN,NaN,NaN
01LeEm,0,4,406,Tilt,0.2,6.5,-0.830526506923698,1,1,1,0.616924999999355,6,1,0,NaN,NaN,NaN,NaN,NaN,NaN
01LeEm,0,4,407,Tilt,0.2,6.5,-0,0,0,1,0.899669600000379,4,2,0,NaN,NaN,NaN,NaN,NaN,NaN
01LeEm,0,4,408,Tilt,0.2,6.5,-0,0,0,1,0.949114099999861,6,2,0,NaN,NaN,NaN,NaN,NaN,NaN
01LeEm,0,4,409,Tilt,0.2,6.5,0.0325743006936269,1,1,1,1.15033310000035,6,5,0,NaN,NaN,NaN,NaN,NaN,NaN
01LeEm,0,4,410,Tilt,0.2,6.5,-0,0,0,1,0.701343900000211,6,3,0,NaN,NaN,NaN,NaN,NaN,NaN
01LeEm,0,4,411,Tilt,0.2,6.5,0,0,0,1,0.84987430000001,6,1,0,NaN,NaN,NaN,NaN,NaN,NaN
01LeEm,0,4,412,Tilt,0.2,6.5,-0.51800373557384,1,1,1,0.983743400000094,5,1,1,NaN,NaN,NaN,NaN,NaN,NaN
01LeEm,0,4,413,Tilt,0.2,6.5,0.283222639469209,1,1,1,0.816473799999585,6,6,0,NaN,NaN,NaN,NaN,NaN,NaN
01LeEm,0,4,414,Tilt,0.2,6.5,-0.240533126831715,1,1,1,0.9007916999999,6,6,0,NaN,NaN,NaN,NaN,NaN,NaN
01LeEm,0,4,415,Tilt,0.2,6.5,-0,0,0,1,0.783269199999268,6,2,0,NaN,NaN,NaN,NaN,NaN,NaN
01LeEm,0,4,416,Tilt,0.2,6.5,0,0,0,1,0.933196599999974,6,4,0,NaN,NaN,NaN,NaN,NaN,NaN
01LeEm,0,4,417,Tilt,0.2,6.5,-0,0,0,1,0.798171000000366,6,4,0,NaN,NaN,NaN,NaN,NaN,NaN
01LeEm,0,4,418,Tilt,0.2,6.5,-0,0,0,1,0.865189399999508,6,5,0,NaN,NaN,NaN,NaN,NaN,NaN
01LeEm,0,4,419,Tilt,0.2,6.5,0.0711535391875757,1,0,0,1.01723969999966,6,0,0,NaN,NaN,NaN,NaN,NaN,NaN
01LeEm,0,4,420,Tilt,0.2,6.5,-0,0,1,0,0.766614799999843,6,6,0,NaN,NaN,NaN,NaN,NaN,NaN
01LeEm,0,4,421,Tilt,0.2,6.5,1.26755871127598,1,1,1,0.816568500000358,6,1,0,NaN,NaN,NaN,NaN,NaN,NaN
01LeEm,0,4,422,Tilt,0.2,6.5,-0,0,0,1,0.833254999999554,6,1,0,NaN,NaN,NaN,NaN,NaN,NaN
01LeEm,0,4,423,Tilt,0.2,6.5,-1.05735297336624,1,1,1,0.649830399999701,6,1,0,NaN,NaN,NaN,NaN,NaN,NaN
01LeEm,0,4,424,Tilt,0.2,6.5,0.0755434022563186,1,1,1,0.949978100000408,1,0,2,NaN,NaN,NaN,NaN,NaN,NaN
01LeEm,0,4,425,Tilt,0.2,6.5,-0,0,0,1,0.833055199999762,6,1,0,NaN,NaN,NaN,NaN,NaN,NaN
01LeEm,0,4,426,Tilt,0.2,6.5,-0,0,0,1,0.750056900000345,6,2,0,NaN,NaN,NaN,NaN,NaN,NaN
02DiSt,0,1,501,Discrimination,0.108175389998542,4.652009578125,-45,0,0,1,0.928984199999832,5,1,1,2.12078182177969,2.39036372790068,-0.702046241254927,0.954163694140532,1.04373679972039,1.51958368834472
02DiSt,1,1,502,Discrimination,0.108175389998542,4.652009578125,-45,0,0,1,1.00029100000029,4,0,0,0.906795428899845,3.75993657643657,-0.659350582144434,1.51510078788978,2.20306531560536,0.750686302485808
02DiSt,1,1,503,Discrimination,0.108175389998542,4.652009578125,45,1,1,1,0.969102600000042,4,2,0,0.528519259599766,3.67978575316871,-2.65786827671488,-0.261848608290007,-0.955829639904774,-1.30291478204109
02DiSt,1,1,504,Discrimination,0.108175389998542,4.652009578125,-45,0,0,1,0.882460099999662,4,1,0,2.62519184817182,6.38103405004594,-0.0368304688368947,0.810878060692314,2.71435997265463,0.396227096502737
02DiSt,1,1,505,Discrimination,0.108175389998542,4.652009578125,45,1,1,1,0.912862099999984,4,3,0,1.64986310943519,4.62186536047517,0.327695270251815,1.21599274765164,0.936852703143198,0.862931309946495
02DiSt,1,1,506,Discrimination,0.108175389998542,4.652009578125,-45,0,1,0,1.19886369999949,2,0,1,1.08554772213075,2.69039661705312,0.388213774260051,1.92563809375418,0.71750620778509,0.0730362819048445
02DiSt,1,1,507,Discrimination,0.108175389998542,4.652009578125,-45,0,0,1,1.26675909999904,1,0,1,1.33567500214201,4.31086512963946,-0.59671219726949,1.27266640245343,-0.44666655817284,-0.862759357522719
02DiSt,1,1,508,Discrimination,0.108175389998542,4.652009578125,45,1,1,1,0.883853600000293,3,0,1,-0.0617786537450139,4.15179056510693,1.3049366570206,2.09133426111404,1.99945738246808,0.89181766368267
02DiSt,1,1,509,Discrimination,0.108175389998542,4.652009578125,-45,0,1,0,1.28354729999955,1,0,3,-0.0894414633820825,2.53009545021668,-0.503158579828051,0.570892799385626,-0.237666710802855,-0.684696719754578
02DiSt,1,1,510,Discrimination,0.108175389998542,4.652009578125,45,1,1,1,0.999924800000372,3,0,0,-1.4641107539508,0.11363336962943,-1.78127476578269,0.0988988185848069,-1.40937084280528,-1.86316511652819
02DiSt,1,1,511,Discrimination,0.108175389998542,4.652009578125,45,1,1,1,0.852276300000085,4,1,1,-1.30232185361409,1.84641820224138,-2.54021530327828,-0.0664568539157145,-3.81428976311133,-1.55128079839051
02DiSt,1,1,512,Discrimination,0.108175389998542,4.652009578125,-45,0,1,0,1.13260599999921,2,0,1,-1.41866231153691,2.08275308160157,-2.27159525063888,-0.149257314288305,-4.24790499193164,-0.696438527995403
02DiSt,1,1,513,Discrimination,0.108175389998542,4.652009578125,-45,0,0,1,1.0012655999999,3,0,1,-1.89814493148634,1.64089296948982,-3.85964754112593,-1.53247723153681,-4.75298964289519,-3.87094583743956
02DiSt,1,1,514,Discrimination,0.108175389998542,4.652009578125,45,1,NaN,NaN,NaN,NaN,2,0,NaN,NaN,NaN,NaN,NaN,NaN
02DiSt,1,1,515,Discrimination,0.108175389998542,4.652009578125,45,1,1,1,0.834220799999457,4,0,2,-0.81707527451586,2.47343893787574,-2.22662565694685,-0.0252408285159618,-3.60916056420941,-0.852793368692623
02DiSt,1,1,516,Discrimination,0.108175389998542,4.652009578125,45,1,1,1,0.951035600000978,4,1,0,1.29174492707347,3.60700756275072,-2.01115438411472,0.492684996178192,-2.83833878748119,-1.33352650252239
02DiSt,1,1,517,Discrimination,0.108175389998542,4.652009578125,-45,0,1,0,1.04958000000079,3,2,0,-0.971557727507731,3.86721170021266,-3.23680882767818,-0.369793044910614,-3.15948301330925,-3.50726670317534
02DiSt,1,1,518,Discrimination,0.108175389998542,4.652009578125,-45,0,0,1,1.01692960000037,2,1,3,-0.270611227038178,6.19605564562286,-3.17216861769859,0.260086624981499,-1.71452684682579,-3.43982312446687
02DiSt,1,1,519,Discrimination,0.108175389998542,4.652009578125,45,1,1,1,0.833002900000793,4,1,0,0.966060778439635,4.82795766940931,-1.66046524601072,0.508204820935371,-0.414445826468559,-2.53658402692981
02DiSt,1,1,520,Discrimination,0.108175389998542,4.652009578125,45,1,1,1,0.849896600000648,5,1,2,1.95953598301304,7.33740109350623,-0.204183456866893,2.09804026782956,0.45158979485098,-1.449644132699
02DiSt,1,1,521,Discrimination,0.108175389998542,4.652009578125,45,1,1,1,0.883801800000583,5,4,0,0.756247923709452,4.51271349700486,-1.61933840893615,1.15414109768307,-2.86157032103779,-3.09865898402726
02DiSt,1,1,522,Discrimination,0.108175389998542,4.652009578125,45,1,1,1,0.901305800000046,4,1,2,-0.516583376204466,2.62268208675995,-2.02648831636247,0.912013329222606,-1.8006952952307,-2.82240190011699
02DiSt,1,1,523,Discrimination,0.108175389998542,4.652009578125,-45,0,1,0,1.20211550000022,3,0,1,-0.0308386911130925,3.10515239076098,-2.37845267004028,0.422022690395312,-2.79349962977263,-2.56933117348973
02DiSt,1,1,524,Discrimination,0.108175389998542,4.652009578125,45,1,1,1,1.21658340000067,2,1,1,-0.528837501006846,3.81643474174709,-2.55864786026483,0.560813685451412,-2.77464644102236,-3.63432637075099
02DiSt,1,1,525,Discrimination,0.108175389998542,4.652009578125,-45,0,0,1,0.833244100000229,2,0,2,-0.839981747947928,0.555569635590584,-1.22346328306087,1.67326422641497,-3.63745380581285,-0.271089648384964
02DiSt,1,1,526,Discrimination,0.108175389998542,4.652009578125,-45,0,0,1,1.04991990000053,3,0,2,-0.41706776455054,3.47663508973471,-1.38799519067195,0.127266242361182,-3.57412749941532,-0.482163552465996
02DiSt,0,2,627,Discrimination,0.108175389998542,4.652009578125,-45,0,0,1,0.981280599999081,5,4,0,-1.8435907855925,0.70144563933789,-3.5511691451774,-2.14552053091187,-3.75903944802972,-2.85213696520503
02DiSt,1,2,628,Discrimination,0.108175389998542,4.652009578125,45,1,1,1,1.1344511999996,5,0,0,0.149769110393037,2.65745210138763,-1.35614580674585,-0.118526726222152,-0.766074791493324,-1.94883142666119
02DiSt,1,2,629,Discrimination,0.108175389998542,4.652009578125,45,1,1,1,1.01732609999999,6,1,0,0.00953326859728417,3.12569469068109,0.702793267000323,1.66611285469717,1.9209317389016,-0.670092332653883
02DiSt,1,2,630,Discrimination,0.108175389998542,4.652009578125,45,1,1,1,1.00016089999917,5,4,0,0.449997033103194,3.84195564214776,0.102112574886478,1.10958828782057,1.29176105200313,-0.536751122327476
02DiSt,1,2,631,Discrimination,0.108175389998542,4.652009578125,-45,0,0,1,1.15014319999864,5,2,0,0.941106216901323,3.4244339669623,-0.294901673149681,0.756827195826981,1.2053376953816,-0.999397756054816
02DiSt,1,2,632,Discrimination,0.108175389998542,4.652009578125,-45,0,0,1,1.05231960000128,4,1,0,-1.71438007407112,1.80695066841819,-1.38388856436406,0.293065820784527,0.896857502096548,-2.27975166498161
02DiSt,1,2,633,Discrimination,0.108175389998542,4.652009578125,-45,0,0,1,1.00078870000107,4,1,0,-1.23503943358428,1.23325421115974,-0.994367579615633,0.883377364378564,-1.0307557823817,-1.14998322350495
02DiSt,1,2,634,Discrimination,0.108175389998542,4.652009578125,-45,0,0,1,1.15012209999986,5,3,0,-0.822947851612721,1.87010384929117,-0.738458430325718,1.66169256442884,0.900939531438053,-0.468470090578549
02DiSt,1,2,635,Discrimination,0.108175389998542,4.652009578125,45,1,1,1,1.01685610000095,4,2,0,-2.6573524412948,1.44333180021949,-2.89380205511625,0.852701752169789,-2.07115235291421,-1.5372312522675
02DiSt,1,2,636,Discrimination,0.108175389998542,4.652009578125,45,1,1,1,1.06731370000125,3,0,2,-1.97711998336755,1.41035182892186,-2.39002024298977,0.155413783352782,-0.943996856778932,-1.38356041899178
02DiSt,1,2,637,Discrimination,0.108175389998542,4.652009578125,45,1,1,1,0.933898199999021,4,0,2,-3.52109449983823,0.133397007531418,-1.77246378330318,1.54926284522314,-2.07728698253632,-1.35355204913947
02DiSt,1,2,638,Discrimination,0.108175389998542,4.652009578125,45,1,1,1,0.833634099999472,5,0,0,-0.870105661958972,0.754313246415156,-0.259555801445701,1.76375476011763,0.835969012209143,-0.62409068176114
02DiSt,1,2,639,Discrimination,0.108175389998542,4.652009578125,45,1,1,1,1.03299440000046,4,2,0,-1.37358543881685,1.36055255744879,-1.21889986638131,0.308214944782262,-0.891576885392603,-1.13728447576769
02DiSt,1,2,640,Discrimination,0.108175389998542,4.652009578125,-45,0,0,1,0.85054560000026,6,2,0,0.409557475275037,3.47874794064499,0.350569950173485,2.41268729045734,0.472282715113117,0.567448071567569
02DiSt,1,2,641,Discrimination,0.108175389998542,4.652009578125,-45,0,0,1,0.934484700001121,4,0,2,-1.6247820450952,2.46928929487561,-1.53416845496925,0.018220673081131,0.493981097337718,-1.90838073725562
02DiSt,1,2,642,Discrimination,0.108175389998542,4.652009578125,-45,0,0,1,1.04983320000065,5,3,0,-2.25677507024,1.18494778815316,-1.99626362447364,-0.614654394190597,-2.15287293056743,-2.29384889326444
02DiSt,1,2,643,Discrimination,0.108175389998542,4.652009578125,45,1,1,1,1.13275549999889,4,0,2,-2.78373218999051,0.0593410782606863,-1.54509196860663,-1.73481805031707,-1.09991954802894,-2.23002923552583
02DiSt,1,2,644,Discrimination,0.108175389998542,4.652009578125,45,1,1,1,0.899183499999708,5,0,1,-2.84399161672238,0.35922962235196,-2.23712129376806,0.0118606067540974,-1.69094724895862,-0.408358144294896
02DiSt,1,2,645,Discrimination,0.108175389998542,4.652009578125,-45,0,0,1,0.866718399998717,5,4,0,-0.841901117931166,1.21541895101801,-0.275224428395326,-1.46662100600382,-1.29691468311044,-0.523172631541767
02DiSt,1,2,646,Discrimination,0.108175389998542,4.652009578125,45,1,1,1,1.15095230000043,4,0,1,-2.29501130262224,-0.052812838824693,-1.2166227504299,-0.66326579895078,-0.781828786246479,-0.391098598594686
02DiSt,1,2,647,Discrimination,0.108175389998542,4.652009578125,-45,0,0,1,1.29991609999888,6,2,0,-0.236763846055411,1.95880641799602,0.47950465726734,0.647568554705409,2.49668871084801,1.04697135308894
02DiSt,1,2,648,Discrimination,0.108175389998542,4.652009578125,45,1,1,1,1.08168539999861,3,0,3,0.00419632682927174,2.2276565830121,2.59221180029466,1.15529909640621,2.95771519378401,2.54635793161465
02DiSt,1,2,649,Discrimination,0.108175389998542,4.652009578125,45,1,1,1,1.06685520000065,4,3,0,-0.296506294925319,1.52925216277675,1.52046103187109,0.290849898433131,3.19298957904371,2.22461294764426
02DiSt,1,2,650,Discrimination,0.108175389998542,4.652009578125,-45,0,0,1,0.934569200000624,3,2,0,2.79590897335865,4.43274930598805,3.50741254102424,2.64746236525484,5.68085243982406,2.86061848227571
02DiSt,1,2,651,Discrimination,0.108175389998542,4.652009578125,-45,0,0,1,0.915110399999321,5,2,0,-1.5404216884036,0.045878148024402,-0.773657729761083,0.925245117155693,-0.668030315895493,1.58271945540498
02DiSt,1,2,652,Discrimination,0.108175389998542,4.652009578125,-45,0,0,1,1.48376909999934,5,4,0,-1.14039702359403,-2.33238578515082,-1.75346605568513,-2.71148790373548,-1.78022048785709,-1.08733606779176
02DiSt,0,3,753,Discrimination,0.102766620498615,4.652009578125,-45,0,0,1,0.981718099999853,6,4,0,-1.27594245996068,1.44155213027829,-0.805067738550492,0.186520981587186,-0.955433573989341,0.53994688021428
02DiSt,1,3,754,Discrimination,0.102766620498615,4.652009578125,-45,0,0,1,0.866458299999067,4,0,1,-2.29815935718338,-2.24562346535485,-2.5566567160389,-1.5277221085467,-2.37870277472181,-2.48378529124496
02DiSt,1,3,755,Discrimination,0.102766620498615,4.652009578125,45,1,1,1,1.2336591000003,1,0,2,-2.74824148704215,-3.88975607331206,-3.70151895872479,-2.1505185059783,-2.53124337116113,-2.6925177534179
02DiSt,1,3,756,Discrimination,0.102766620498615,4.652009578125,-45,0,NaN,NaN,NaN,NaN,0,0,NaN,NaN,NaN,NaN,NaN,NaN
02DiSt,1,3,757,Discrimination,0.102766620498615,4.652009578125,45,1,1,1,1.03339899999992,4,2,0,1.3866761437442,0.902923840438811,-0.931957741499661,-0.329996829884729,0.245929355675784,-1.08372661644002
02DiSt,1,3,758,Discrimination,0.102766620498615,4.652009578125,-45,0,1,0,1.13370489999943,2,1,2,-1.74022692342353,-1.56001704522386,-2.21063301359541,-1.4683469140427,-1.20872457517454,-1.68873489847997
02DiSt,1,3,759,Discrimination,0.102766620498615,4.652009578125,-45,0,0,1,1.20038449999993,1,1,5,-2.80971536416524,-2.45769939135488,-2.88118199705875,-1.42098899904902,-0.852092166173343,-2.52814624931027
02DiSt,1,3,760,Discrimination,0.102766620498615,4.652009578125,45,1,1,1,0.933655799999542,3,1,1,-3.8326998516032,-3.81960920862308,-3.07151817535107,-0.942286666848383,-1.54028040220045,-1.18540271185338
02DiSt,1,3,761,Discrimination,0.102766620498615,4.652009578125,45,1,1,1,1.01555740000003,3,0,1,-0.740903275880483,-1.03608645666845,-1.4251497088628,-0.710977505105446,2.76741537407327,-2.4131408017583
02DiSt,1,3,762,Discrimination,0.102766620498615,4.652009578125,45,1,1,1,0.866440100000545,3,0,2,-1.56863618115341,-0.500426518935256,-3.16888453377984,-1.24720329596438,-0.123762681969227,-3.54006800564324
02DiSt,1,3,763,Discrimination,0.102766620498615,4.652009578125,45,1,1,1,1.18314379999902,2,1,0,0.0414001607880144,1.92593166695499,-2.70529928227589,-0.551184966182399,1.95332458831656,-2.47512249067062
02DiSt,1,3,764,Discrimination,0.102766620498615,4.652009578125,-45,0,0,1,0.850776299999779,1,0,2,-1.49004919664695,-0.201065343895518,-2.97547431451246,-0.510435953346567,0.580300602116264,-2.77733475831905
02DiSt,1,3,765,Discrimination,0.102766620498615,4.652009578125,-45,0,0,1,0.899966099999801,5,1,1,-0.0925696822123067,1.92878606747382,-0.981162992674859,0.160786727142176,1.56562048502249,-1.47954021148929
02DiSt,1,3,766,Discrimination,0.102766620498615,4.652009578125,45,1,1,1,0.834782399999312,4,0,0,-0.703606566592894,1.63855692563101,-1.92980902172957,-1.35472323767254,0.716643309643349,-1.47874964415891
02DiSt,1,3,767,Discrimination,0.102766620498615,4.652009578125,-45,0,1,0,1.09986690000005,1,0,4,-2.01660769838508,0.486652543109546,-0.791195165614672,1.24438064506293,0.254078403459145,-0.909711580996106
02DiSt,1,3,768,Discrimination,0.102766620498615,4.652009578125,45,1,1,1,1.06635590000042,3,0,0,-0.675138825997895,3.20626640728698,-1.11672040297902,-0.0394352074537259,0.251409528862972,-0.684513032890675
02DiSt,1,3,769,Discrimination,0.102766620498615,4.652009578125,-45,0,0,1,1.34957860000031,4,0,1,0.152686064365541,3.0270852851795,-0.0522266995870633,0.366972872774805,0.191406875598029,0.294161214720367
02DiSt,1,3,770,Discrimination,0.102766620498615,4.652009578125,45,1,1,1,1.15211450000061,1,0,3,-0.829135922069597,1.06404368215803,-0.334918387102242,-0.652839237600109,0.896552760103861,-0.104709492110443
02DiSt,1,3,771,Discrimination,0.102766620498615,4.652009578125,-45,0,0,1,0.984089199999289,4,0,2,-1.51370109193543,2.0348590726896,0.0928801146867546,1.08269968821222,0.194216121779755,0.0101696451467167
02DiSt,1,3,772,Discrimination,0.102766620498615,4.652009578125,45,1,1,1,0.917686700000559,4,1,1,0.663637932297764,2.92469190224642,0.778013832234638,1.76075082865756,0.988597076515166,0.623484594929146
02DiSt,1,3,773,Discrimination,0.102766620498615,4.652009578125,-45,0,0,1,0.983690200000638,4,2,0,1.08172698079212,3.58317739789079,0.141151499412275,0.311057382065843,1.57239122333435,-0.0486417851870789
02DiSt,1,3,774,Discrimination,0.102766620498615,4.652009578125,-45,0,0,1,1.45058260000042,4,1,0,0.263518887968494,1.88649054044267,0.767898844983919,1.36167888405702,2.54859424912586,-0.393524339490729
02DiSt,1,3,775,Discrimination,0.102766620498615,4.652009578125,-45,0,0,1,0.833309899999222,5,2,0,0.0780788786561772,2.46401126301143,1.24103233513945,1.88118735463207,0.391023707791017,0.995198141232633
02DiSt,1,3,776,Discrimination,0.102766620498615,4.652009578125,45,1,1,1,1.05014280000069,3,1,1,0.565715367698323,1.70634644810201,-0.0242860652016182,0.468513496923823,0.685825163864334,0.986379428607662
02DiSt,1,3,777,Discrimination,0.102766620498615,4.652009578125,45,1,1,1,0.850264400000015,3,1,0,2.06697311436776,-0.212972110659793,2.47025558878083,1.78137070532514,1.25735977195347,3.04806208101715
02DiSt,1,3,778,Discrimination,0.102766620498615,4.652009578125,45,1,1,1,0.917270899999494,4,0,1,-1.10332566492333,3.84298515551519,-0.32337974657791,1.12930972565411,1.58101432468885,1.87759255020448
02DiSt,0,4,801,Discrimination,0.0976282894736842,4.652009578125,-45,0,0,1,0.931036199999653,5,0,0,0.965027522664554,2.98617081598538,-0.879461620674141,1.30362129397066,0.393679227436391,-0.806312883874719
02DiSt,1,4,802,Discrimination,0.0976282894736842,4.652009578125,45,1,1,1,0.884592300000804,6,2,0,1.97405588099419,4.06499115868313,-0.832102451369048,0.795456869171492,1.09842050602803,-1.09689798212338
02DiSt,1,4,803,Discrimination,0.0976282894736842,4.652009578125,45,1,1,1,0.870180199999595,6,1,0,-0.678961169502541,2.01369922553621,0.404260062090374,3.45499213736848,0.719784251686472,0.403319861762589
02DiSt,1,4,804,Discrimination,0.0976282894736842,4.652009578125,45,1,1,1,0.816621800000576,5,0,0,-1.38060227080737,1.66728303204404,-0.299654034518746,2.73311531668815,-1.06503107347167,-0.369058648465065
02DiSt,1,4,805,Discrimination,0.0976282894736842,4.652009578125,45,1,1,1,0.859395099998437,4,3,0,-0.768212314584468,3.34419127862628,-1.36850298667911,1.77126703947595,-1.18863982851975,-1.26004151418442
02DiSt,1,4,806,Discrimination,0.0976282894736842,4.652009578125,-45,0,0,1,1.05044239999916,1,0,4,-1.7826216622892,1.31378939177659,-0.88057528598317,1.24070114956956,-1.81664955598804,-0.902383391086648
02DiSt,1,4,807,Discrimination,0.0976282894736842,4.652009578125,45,1,1,1,0.884252599998945,4,2,0,-2.42314733953981,2.38136368108595,-1.51606498141716,1.2253230356171,-2.89256321168863,0.135080150862383
02DiSt,1,4,808,Discrimination,0.0976282894736842,4.652009578125,-45,0,1,0,0.967730899999879,1,0,5,-1.01131665411562,0.45875573267297,-2.56378181234213,-0.575547802024116,-4.02670493608054,-1.64163708977583
02DiSt,1,4,809,Discrimination,0.0976282894736842,4.652009578125,45,1,1,1,0.85029620000023,3,0,3,-3.0058315474872,0.821540728955325,-3.85482578472751,-1.80387137045846,-3.25427946697634,-2.5859675820826
02DiSt,1,4,810,Discrimination,0.0976282894736842,4.652009578125,45,1,1,1,0.980924499999674,2,0,4,-1.49897252030597,0.313480580180157,-1.3598790945309,0.435617441472341,-3.54530602028737,-0.300053592180697
02DiSt,1,4,811,Discrimination,0.0976282894736842,4.652009578125,45,1,1,1,0.834836399999404,4,1,0,-0.424944735399567,1.04677806585664,-1.09688952641924,0.313115386866823,-0.986907523949272,0.540542432970208
02DiSt,1,4,812,Discrimination,0.0976282894736842,4.652009578125,45,1,1,1,0.933208000000377,4,3,0,-1.73444535925127,1.28075993235973,-1.73696940627496,-0.294255713349665,-0.775224952689873,-0.373526424669274
02DiSt,1,4,813,Discrimination,0.0976282894736842,4.652009578125,-45,0,0,1,1.15013980000003,1,0,0,-1.57857650345293,1.14938818951842,-2.18089842753342,-0.30518671841887,-1.66080332535964,-0.0082591478372129
02DiSt,1,4,814,Discrimination,0.0976282894736842,4.652009578125,-45,0,1,0,0.933446099999856,2,1,0,-3.1900811555362,1.57891596865091,-2.96879809837646,0.636275461186533,-2.07682521279113,-1.7666458875486
02DiSt,1,4,815,Discrimination,0.0976282894736842,4.652009578125,45,1,1,1,0.850004399999307,2,0,3,-0.933246576440484,1.77586358223428,0.00355173222087173,2.94880468534994,1.63696429419976,-0.786687631432603
02DiSt,1,4,816,Discrimination,0.0976282894736842,4.652009578125,-45,0,0,1,1.06706549999944,1,0,0,-3.70514179456352,1.4705151147777,-1.7901086188619,3.04150276555194,-1.78697792558143,-0.859041556761396
02DiSt,1,4,817,Discrimination,0.0976282894736842,4.652009578125,-45,0,0,1,1.09826590000011,2,0,4,-0.167201487292158,2.95774106935757,-1.33009708251404,1.66253360559273,0.316381337522314,-1.59289999515182
02DiSt,1,4,818,Discrimination,0.0976282894736842,4.652009578125,45,1,1,1,0.868143200001214,4,0,0,-1.1024856973753,1.60484385328572,0.17447489216525,1.53802435389598,1.26336824974188,-1.19814566736359
02DiSt,1,4,819,Discrimination,0.0976282894736842,4.652009578125,-45,0,0,1,1.00087470000108,4,0,1,-0.503290088644417,1.79774270433842,0.149868801748946,1.38358801187006,1.47838714299724,-1.02555216660314
02DiSt,1,4,820,Discrimination,0.0976282894736842,4.652009578125,45,1,1,1,0.882727000000159,4,1,1,1.28230704025061,3.77515303070952,0.0668247030531377,1.0279649397097,2.13806058756577,-0.520079855068882
02DiSt,1,4,821,Discrimination,0.0976282894736842,4.652009578125,-45,0,0,1,0.93493479999961,3,2,1,1.28347521416363,3.48344498800068,1.15268185184062,0.874569432760599,3.29541952956396,0.515526036005013
02DiSt,1,4,822,Discrimination,0.0976282894736842,4.652009578125,-45,0,0,1,0.850522799999453,4,1,0,0.26211549817483,1.30630878845184,0.399819103900123,-0.736351273221257,1.24949718977396,-0.586019528484563
02DiSt,1,4,823,Discrimination,0.0976282894736842,4.652009578125,45,1,1,1,0.91880559999845,3,0,2,-0.151482102304402,-0.359123578454118,-1.69239720882686,-2.91555929357666,-0.52055765069448,-2.0708051073115
02DiSt,1,4,824,Discrimination,0.0976282894736842,4.652009578125,-45,0,0,1,0.88327930000014,3,1,2,1.59043215061215,1.7750296488904,0.958759167467278,-0.985114259160384,2.68767005738157,-0.719326549232369
02DiSt,1,4,825,Discrimination,0.0976282894736842,4.652009578125,-45,0,0,1,0.83253650000006,5,0,1,-0.472880790083863,-0.996062608844623,-0.324263806221535,-2.1200155601862,-1.87568018998091,-0.727464763879231
02DiSt,1,4,826,Discrimination,0.0976282894736842,4.652009578125,-45,0,0,1,0.850569100000939,5,0,0,-1.78639515662695,-0.481529924098584,3.27221720641067,2.51471161993433,-1.76325652805658,3.91779027770205
02DiSt,0,5,953,Discrimination,0.092746875,4.652009578125,45,1,1,1,0.948584600000686,5,2,0,1.45976137897313,2.47787896634602,0.788874199444255,1.52992365525215,0.182254951218,1.03626976237155
02DiSt,1,5,954,Discrimination,0.092746875,4.652009578125,45,1,1,1,1.04998660000092,5,3,0,1.16958048394743,2.27826502887396,-0.300765193628358,0.168432401673509,0.542860239873139,-0.97196801350929
02DiSt,1,5,955,Discrimination,0.092746875,4.652009578125,-45,0,0,1,0.997004000000743,4,1,0,1.24912451679754,2.82146338646005,2.02205381090003,2.21024079738266,0.259666508550827,0.848716138509988
02DiSt,1,5,956,Discrimination,0.092746875,4.652009578125,-45,0,0,1,1.08305180000025,5,2,2,-1.26296809116508,2.70892343992685,-0.112948151667289,0.220566222030396,-2.19685503728688,-0.109529223247636
02DiSt,1,5,957,Discrimination,0.092746875,4.652009578125,-45,0,NaN,NaN,NaN,NaN,0,0,NaN,NaN,NaN,NaN,NaN,NaN
02DiSt,1,5,958,Discrimination,0.092746875,4.652009578125,-45,0,0,1,0.916578500000469,5,4,0,-3.05988657806474,-1.08397766275377,-2.99167150688294,-1.25469437626231,-4.93121478205117,-2.81812639598076
02DiSt,1,5,959,Discrimination,0.092746875,4.652009578125,45,1,1,1,0.8164041,6,3,0,-2.53065103321972,-0.66480091261314,-2.95350183736672,-1.18749301035575,-4.08368385216365,-1.10512587773364
02DiSt,1,5,960,Discrimination,0.092746875,4.652009578125,45,1,1,1,0.999877999998716,4,3,3,-0.808478775858363,0.760397767602671,-1.26031340807884,-0.605528051885753,-3.87084978965039,-0.887815580794179
02DiSt,1,5,961,Discrimination,0.092746875,4.652009578125,-45,0,0,1,1.08282820000022,4,0,1,-1.9042701361203,0.0057494622178194,-0.786858075262549,-0.254936491938956,-5.02210284207876,0.152985542047224
02DiSt,1,5,962,Discrimination,0.092746875,4.652009578125,-45,0,0,1,1.0008917999985,1,0,3,-2.70226547811734,-1.47569472669828,1.54660261862747,-1.11251278087477,-5.17502028368987,1.53901262799414
02DiSt,1,5,963,Discrimination,0.092746875,4.652009578125,-45,0,0,1,0.916099800000666,5,0,1,-3.4983278257717,0.341111395462621,0.518856491923694,-0.395670822798781,-2.64245918784291,2.83006437631642
02DiSt,1,5,964,Discrimination,0.092746875,4.652009578125,45,1,1,1,1.08384029999979,1,0,2,-1.90265374988465,2.51897769129875,1.57415405743725,0.928858440955003,0.258966313223713,3.20675467045569
02DiSt,1,5,965,Discrimination,0.092746875,4.652009578125,45,1,0,0,1.20055880000109,2,0,0,2.04031815586409,5.45143651598837,4.95093204222077,2.49246763173015,3.38805225646267,6.00445175316276
02DiSt,1,5,966,Discrimination,0.092746875,4.652009578125,-45,0,0,1,1.13417169999957,5,0,1,0.650247863539965,1.90768157418181,0.486117954179857,-0.585200453900894,-0.72434803415448,2.19252990345221
02DiSt,1,5,967,Discrimination,0.092746875,4.652009578125,45,1,NaN,NaN,NaN,NaN,0,0,NaN,NaN,NaN,NaN,NaN,NaN
02DiSt,1,5,968,Discrimination,0.092746875,4.652009578125,-45,0,0,1,1.03375140000026,2,0,1,-0.869548537722318,0.797007659154876,-1.04921940086786,-0.560948485149192,1.43300657706837,0.325047041811958
02DiSt,1,5,969,Discrimination,0.092746875,4.652009578125,45,1,1,1,1.06721860000107,4,2,0,2.52709826622343,5.43181172304037,4.06406982533392,3.84016354051014,3.93633763893293,5.35587659260122
02DiSt,1,5,970,Discrimination,0.092746875,4.652009578125,-45,0,0,1,1.18281840000054,3,0,1,-0.0579138720491071,3.4316747171986,-0.0743505570772179,0.387137505415645,1.1000327470784,1.11491856525266
02DiSt,1,5,971,Discrimination,0.092746875,4.652009578125,45,1,1,1,0.983880600000703,5,0,0,-1.9714042759399,0.791277517700886,-2.48913268209435,-0.16116966710188,-1.83080217923539,-0.939017786354781
02DiSt,1,5,972,Discrimination,0.092746875,4.652009578125,45,1,NaN,NaN,NaN,NaN,0,0,NaN,NaN,NaN,NaN,NaN,NaN
02DiSt,1,5,973,Discrimination,0.092746875,4.652009578125,-45,0,1,0,1.08295720000024,1,0,2,0.666813663206995,3.07044298438037,-1.81727837417124,0.787049055590456,1.48541751801968,-0.0203026249300598
02DiSt,1,5,974,Discrimination,0.092746875,4.652009578125,45,1,1,1,0.834350600000107,5,1,0,-3.4980683232298,-2.30903963726468,-3.68571440267761,0.360472642137725,-3.78637347421967,-3.31857377099918
02DiSt,1,5,975,Discrimination,0.092746875,4.652009578125,-45,0,0,1,0.883278000001155,5,3,0,-3.95259479720994,-2.0290533092509,-3.24780629746812,-1.3457990371035,-2.22902791412691,-3.27107049197685
02DiSt,1,5,976,Discrimination,0.092746875,4.652009578125,45,1,1,1,0.866363999999521,3,1,2,-2.90718635547869,0.20111996855405,-2.2002263834732,0.141963108584447,-2.81341797832686,-1.42934243776268
02DiSt,1,5,977,Discrimination,0.092746875,4.652009578125,45,1,1,1,1.14943040000071,1,0,1,-0.692271211996011,1.69130767750122,-0.901926628370988,0.566304692259544,-0.258836311621305,-0.913625961839698
02DiSt,1,5,978,Discrimination,0.092746875,4.652009578125,-45,0,0,1,1.2674207,4,3,0,-4.46876647105754,-1.81242679359346,-3.49696596296738,-0.182119878532514,-3.07058599649284,-5.7183815700161
02DiSt,0,1,553,Detection,0.0392510464687002,4.652009578125,0.233069974347825,1,1,1,1.23375959999976,4,0,1,-1.85056985228664,2.04887744420912,-1.37136217140025,1.18078495014418,-0.154129952013206,-1.572869961309
02DiSt,1,1,554,Detection,0,4.652009578125,0.942054915419809,0,1,0,0.852351399998952,4,0,2,-2.17527937723121,-0.429716419766475,-3.53777088189633,-1.16504937211816,-4.07047265882675,-2.27429399053316
02DiSt,1,1,555,Detection,0.0392510464687002,4.652009578125,-0.498224722370346,1,0,0,1.08510989999922,2,0,4,-0.163304721075571,1.54436733138395,-1.68929311851754,0.182074701140189,-0.701360003034083,-2.29780606889143
02DiSt,1,1,556,Detection,0.0392510464687002,4.652009578125,-0.737386410703396,1,1,1,0.917020700000649,4,2,0,0.772412151983469,1.70822903204982,0.498625065993832,1.44311468036587,2.10857947483086,0.141174532268651
02DiSt,1,1,557,Detection,0,4.652009578125,-0.49404977231811,0,1,0,1.23489169999993,2,0,0,0.268497247894359,0.496439828395435,0.186749015750539,1.63656393594473,0.840886570455936,-0.40988143714054
02DiSt,1,1,558,Detection,0,4.652009578125,-0.259255806490107,0,0,1,0.967080399999759,5,4,0,-0.735754729958601,1.78464702996085,0.644008620619031,2.31038734883718,0.138002249104186,0.268494289720476
02DiSt,1,1,559,Detection,0.0392510464687002,4.652009578125,1.27542065556929,1,0,0,1.01721999999972,4,2,0,-0.260435701218793,0.744301378850473,-0.786534852074433,0.927533479160047,-1.06372851204987,-0.943268775337989
02DiSt,1,1,560,Detection,0.0392510464687002,4.652009578125,-0.733591620534082,1,0,0,1.00051910000002,4,2,2,-0.102175159778649,2.26393589977084,-1.33889323228363,0.500565188352915,-1.26850196680484,-1.61528833464878
02DiSt,1,1,561,Detection,0.0392510464687002,4.652009578125,0.531219650749633,1,1,1,1.16618639999979,1,0,5,-1.71769068325584,0.396614701282687,-1.10372699749056,1.04737362718974,-0.752031107132251,-0.287433286824991
02DiSt,1,1,562,Detection,0,4.652009578125,0.381845697894285,0,0,1,0.933366499999465,5,1,0,-0.0249503790539238,0.92690471243454,-0.397294511964831,0.236468120770397,-1.54114297483689,-0.868166891101282
02DiSt,1,1,563,Detection,0.0392510464687002,4.652009578125,0.297423103022268,1,0,0,1.20052419999956,3,1,0,1.58503673575579,5.22344341801434,0.81765334279727,1.54466028899807,2.06304739381258,0.666257884546478
02DiSt,1,1,564,Detection,0,4.652009578125,0.566913006921322,0,0,1,0.850588999999673,5,1,1,-0.884152155399488,2.63045404556423,-0.206727563548418,1.47819997808319,0.00225414854895252,-0.062949382756814
02DiSt,1,1,565,Detection,0,4.652009578125,0.291679238275813,0,0,1,0.848221199999898,5,4,0,-0.688543321806269,1.22030362466396,-0.927077600303547,-0.25240663567725,-0.739166326111612,-0.621950921227747
02DiSt,1,1,566,Detection,0.0392510464687002,4.652009578125,0.198998300931771,1,1,1,1.39935460000015,2,0,1,0.272537008001663,4.68627012212102,0.0134312752398628,1.87446078930288,0.959722989432227,-0.189500071290063
02DiSt,1,1,567,Detection,0,4.652009578125,0.724080444191982,0,0,1,1.01688579999973,3,0,1,1.33523416921201,4.14877260603556,0.595516755605241,1.7306834904315,1.28386210441016,0.658730677397149
02DiSt,1,1,568,Detection,0,4.652009578125,-0.401824959161989,0,0,1,0.916961900000388,4,2,0,-0.605963112507476,2.88623844577772,-0.853422036897137,0.62410202429316,-0.406047199580532,-0.242103737044977
02DiSt,1,1,569,Detection,0.0392510464687002,4.652009578125,-0.109803530369896,1,0,0,1.00058940000054,4,2,0,1.04465386774944,4.74738868707564,0.00869622369540048,2.66347979176372,1.14947441529053,1.3780264550502
02DiSt,1,1,570,Detection,0,4.652009578125,0.355462256455836,0,1,0,1.0689911999998,1,1,4,-1.54720497701206,5.14529733105404,-0.70241931641874,2.79414135602849,-0.599408470323453,2.39460146972319
02DiSt,1,1,571,Detection,0.0392510464687002,4.652009578125,-1.28148498717533,1,0,0,0.900794300001508,5,2,0,-1.44413984898884,1.22821084341807,-2.09614624900495,0.593674821009778,-4.14290429190374,0.913968142110673
02DiSt,1,1,572,Detection,0.0392510464687002,4.652009578125,-0.458661246003671,1,1,1,1.08366849999948,2,1,0,-1.82444265613904,2.175472109323,-1.19198838784495,1.03878020174409,-0.458198138770576,1.25075312414229
02DiSt,1,1,573,Detection,0,4.652009578125,-0.794365257255586,0,0,1,0.935204400000657,3,0,1,-3.18082813343199,1.84882398658409,-2.8240773312838,0.0898496640451334,-1.69544941843129,0.163966347258992
02DiSt,1,1,574,Detection,0,4.652009578125,-0.806965214257883,0,0,1,1.10002170000007,4,0,0,-1.32662585857186,2.77445805401019,-0.989745622099215,1.71172912213597,0.762495420171091,1.28687650010859
02DiSt,1,1,575,Detection,0,4.652009578125,-0.437957071945684,0,0,1,1.00044229999912,4,0,0,0.244212109779957,6.40357591466206,0.907106556767515,3.30065711350535,3.08855360852411,2.39069077395266
02DiSt,1,1,576,Detection,0.0392510464687002,4.652009578125,0.574021431444891,1,1,1,0.99994979999974,2,0,4,-1.56241141713344,4.76802200592327,0.983089848725042,4.08535228529186,4.7396859768205,1.60871116290005
02DiSt,1,1,577,Detection,0,4.652009578125,-1.19932617698737,0,1,0,0.86619249999967,2,1,4,-1.0877489938705,5.33286327123642,-1.08200090631007,1.70325045333922,2.16087530137828,1.11824009033692
02DiSt,1,1,578,Detection,0.0392510464687002,4.652009578125,0.707207268330461,1,1,1,0.997894000000088,1,0,5,-0.00969894569699127,4.36984058832977,-1.97510687406231,-0.458021022070645,1.17773942940224,0.361930743666229
02DiSt,0,2,601,Detection,0.0392510464687002,4.652009578125,1.61526162268821,1,1,1,0.890622699998858,3,0,0,0.133202326265025,1.40781748252807,0.835210443515843,0.541583764915666,0.951620408935616,0.703968996182084
02DiSt,0,2,602,Detection,0,4.652009578125,0.328864041707201,0,1,0,0.947805399999197,4,3,0,-0.601446866124666,1.53958648753994,-1.49712510662613,-0.740661519199974,-1.58045327429875,-1.36890161471305
02DiSt,0,2,603,Detection,0,4.652009578125,0.043251619614198,0,1,0,0.884628600000724,2,1,1,-0.845152409470612,0.244885302718059,-1.29887792584628,-1.18978959657049,-0.888346543281267,-1.21776316939603
02DiSt,0,2,604,Detection,0,4.652009578125,0.270144877597505,0,1,0,0.950080599999637,3,1,0,0.295832677675171,1.00324895469154,-0.498996945839896,-0.0948017832742271,-0.843353746279788,-0.565299037701973
02DiSt,0,2,605,Detection,0,4.652009578125,0.897881638372456,0,0,1,0.984092000000601,5,1,1,0.0780708114939308,2.92554705608182,-1.57404598974819,-0.983760265566399,-0.868775849882513,-1.40808896956647
02DiSt,0,2,606,Detection,0,4.652009578125,1.51377193680112,0,0,1,1.01746129999992,4,3,1,0.15005405175057,3.28547567637955,-2.83945576148296,-2.13003057117559,-2.3706359678163,-3.1480812263198
02DiSt,0,2,607,Detection,0.0392510464687002,4.652009578125,-0.347670926732815,1,1,1,0.967475399998875,3,0,1,-0.978957641445617,3.76346983924145,-1.70870479903286,-2.60230052782445,0.951493839360774,-3.52705577670074
02DiSt,0,2,608,Detection,0,4.652009578125,2.21832378163383,0,1,0,0.934173100000407,4,1,2,-1.1328389719728,2.58670431757119,-1.91128102541422,-2.03680534720289,-2.22329060217509,-3.24614255312012
02DiSt,0,2,609,Detection,0,4.652009578125,-0.241893079568386,0,0,1,1.01989940000021,3,2,0,-1.5537512489032,2.48121169925009,-1.8449400082487,-0.609446738477108,0.812747552903154,-3.2181066579935
02DiSt,0,2,610,Detection,0.0392510464687002,4.652009578125,-1.08213312612271,1,0,0,0.984092299999247,4,1,1,-1.25628395594361,3.15916257631034,-1.1819005795351,0.0831175074582342,1.57082590010877,-3.31193399792764
02DiSt,0,2,611,Detection,0.0392510464687002,4.652009578125,0.28518289508239,1,0,0,0.91842319999887,5,2,0,-2.5922716392739,3.54323691435488,-0.422783138278517,0.432803384879979,1.79971983833955,-2.00110583443467
02DiSt,0,2,612,Detection,0.0392510464687002,4.652009578125,1.01639688546169,1,0,0,0.917074599999978,5,2,0,-2.26053575717407,3.05344225670688,0.804761169656455,1.58078883372693,2.27410938834342,-1.02993482369475
02DiSt,0,2,613,Detection,0,4.652009578125,-1.84007688193311,0,0,1,0.899356699999771,6,2,0,-0.574596189197595,4.19622236708315,0.256878973457581,0.767519614244204,2.15199299549254,-1.44438095817842
02DiSt,0,2,614,Detection,0,4.652009578125,0.645299225656653,0,1,0,1.01595810000072,2,0,0,-1.60807768078429,4.56766378334383,-1.47990804926873,-0.507959992647596,0.599724152275863,-2.40402636731543
02DiSt,0,2,615,Detection,0,4.652009578125,-1.01619083939854,0,0,1,0.983506500000658,5,1,0,-0.86098292875703,2.992177389971,-1.20642009925833,-0.552155969479708,0.674674095141773,-2.16141120180851
02DiSt,0,2,616,Detection,0.0392510464687002,4.652009578125,-0.996238175200967,1,0,0,1.04959500000041,5,4,0,-0.481474593373956,4.10077896060013,-0.0294875649957793,0.639913730794037,2.61251839529454,-1.31434697151275
02DiSt,0,2,617,Detection,0.0392510464687002,4.652009578125,0.169156714817183,1,0,0,0.881118399998741,6,4,0,-2.01876059395842,4.32523915825821,0.252358178087785,1.45142157999742,1.34743593687621,0.232717278822348
02DiSt,0,2,618,Detection,0,4.652009578125,0.846326500618769,0,1,0,0.752286599999934,2,1,1,-1.5908057863529,2.23656873468582,-0.839087733565283,0.291316076357717,0.926181722432375,-1.47237990251402
02DiSt,0,2,619,Detection,0.0392510464687002,4.652009578125,0.888254607886868,1,1,1,1.03515340000013,2,0,4,-2.62551527389205,-0.700956669726931,-1.46331414489947,-0.515544655651826,-2.54497740538791,-1.72794489853266
02DiSt,0,2,620,Detection,0.0392510464687002,4.652009578125,-0.578380029777667,1,0,0,1.15005999999994,4,1,0,-1.02325279545039,1.57120536120109,-0.08495480468853,-0.393251252029111,-0.639578434298388,0.368106996424769
02DiSt,0,2,621,Detection,0,4.652009578125,-0.0129773575920811,0,0,1,1.1522101999999,2,1,0,-0.627071212935676,2.57684665191464,-0.392140669487549,-0.542301845038942,-1.14050765899368,-0.764739568776837
02DiSt,0,2,622,Detection,0.0392510464687002,4.652009578125,-0.735098797232795,1,1,1,1.3329305999996,3,2,1,0.049167884624388,4.77362113900301,-0.958040318151593,0.0209071375929457,0.0292475690062229,-1.23826308766516
02DiSt,0,2,623,Detection,0.0392510464687002,4.652009578125,-0.326348150580718,1,0,0,1.18093610000142,4,0,2,-1.63365912843164,1.69089226700116,-0.824090912574261,0.967307519457435,-1.51304623487477,-1.70391039732026
02DiSt,0,2,624,Detection,0.0392510464687002,4.652009578125,-0.453302685540146,1,0,0,0.966321099998822,4,2,0,-2.33843598677085,0.673639807123237,-0.973110247685231,0.460655124332887,-1.38384328723455,-0.987571816209976
02DiSt,0,2,625,Detection,0.0392510464687002,4.652009578125,-0.153741797894327,1,1,1,1.04984739999963,4,0,1,0.0823267828765334,2.59691816168587,0.20948838925664,0.936043162526482,-0.266347218749042,0.437158940246374
02DiSt,0,2,626,Detection,0,4.652009578125,-0.3484050854673,0,1,0,1.01554489999944,3,2,0,-1.22316678277779,2.22038447075501,-2.05919901494442,-1.05972634018358,-1.22956453362713,-2.31132788701755
02DiSt,0,3,701,Detection,0.0413168910196845,4.652009578125,1.35004258607269,1,0,0,1.06981730000007,5,4,0,-0.648098697015926,-0.110047854051539,0.741946717446127,1.36278082176021,1.29551291145169,0.838754739623699
02DiSt,1,3,702,Detection,0.0413168910196845,4.652009578125,0.00821164951749528,1,1,1,0.951574999999139,4,0,1,-0.0838822920779043,0.386097316539324,-0.700635509500858,0.580076757517299,-0.54097389343123,0.343518511823765
02DiSt,1,3,703,Detection,0.0413168910196845,4.652009578125,0.714489757915144,1,0,0,0.916818400000921,4,1,0,-0.580802274896708,2.17913073455779,0.519021473030809,1.87772831647738,1.47078462905036,1.08876599598585
02DiSt,1,3,704,Detection,0,4.652009578125,1.13959087874251,0,0,1,0.801876499999707,6,0,0,-0.611365257144564,0.714802258579833,-2.37287659875705,-0.476666163498126,-1.67618745364822,-0.729184325648154
02DiSt,1,3,705,Detection,0,4.652009578125,0.208194400574053,0,0,1,0.966503899999225,4,3,0,-0.590265776694632,1.48707409232582,-0.185799315952138,0.960015099546265,-0.066496061719954,-0.107227431343323
02DiSt,1,3,706,Detection,0,4.652009578125,-1.01695601539648,0,1,0,0.850138699999661,4,1,0,-0.812046935210133,0.10034949868554,-1.76919996073217,0.0251887318483331,-1.77816809252478,-0.607121445284021
02DiSt,1,3,707,Detection,0,4.652009578125,0.430476295816735,0,1,0,0.917534300000625,3,0,3,-1.1765538398626,1.0018144113625,-1.63555846189296,0.178225426151387,0.160613800651537,-0.929216235688683
02DiSt,1,3,708,Detection,0,4.652009578125,0.245571614171541,0,0,1,1.10053350000089,3,0,3,0.462389482710842,2.54550543064024,-0.625684440299326,1.14940149807871,0.862054576667456,-0.203190715047219
02DiSt,1,3,709,Detection,0.0413168910196845,4.652009578125,-0.962725973130629,1,1,1,0.798273299998982,4,0,1,-0.706037550980207,1.7097587854397,-1.52777803657192,-0.310945559924458,-1.87604512076538,-1.56033488951351
02DiSt,1,3,710,Detection,0.0413168910196845,4.652009578125,1.49421632665912,1,1,1,0.947753899999952,5,0,1,-0.852312344223224,1.89348156766103,-0.98924841066994,-0.255009025585858,-2.77948998624745,-0.564984356518835
02DiSt,1,3,711,Detection,0.0413168910196845,4.652009578125,0.980262709749304,1,1,1,0.847515999999814,5,1,0,1.67219519050847,2.50037070963441,0.25830078337187,0.889576826684946,0.234279084965014,0.365723504682026
02DiSt,1,3,712,Detection,0,4.652009578125,0.302441801912699,0,0,1,0.883756500001255,5,3,0,-0.748213752128403,2.98164081746122,-0.0316457735456579,1.25639600547631,-0.142718779625228,0.494284178561917
02DiSt,1,3,713,Detection,0.0413168910196845,4.652009578125,0.230067820394166,1,0,0,0.850665699999809,5,2,0,-2.01234377832106,-0.491576148128909,-0.167196539222161,1.07939113789199,0.356076175778603,-0.565491819101181
02DiSt,1,3,714,Detection,0,4.652009578125,0.530820019337907,0,0,1,0.916630899999291,4,3,0,-0.124046560303114,2.72824649403735,0.456382201789399,1.66526508651947,1.41090205867703,0.773045752515517
02DiSt,1,3,715,Detection,0.0413168910196845,4.652009578125,-1.15695874992993,1,0,0,0.866608800000904,4,2,1,-0.379377840916709,4.23056023331677,-0.985834702316093,0.741102520299888,2.09924578873011,-1.38321712331437
02DiSt,1,3,716,Detection,0,4.652009578125,-0.92468079574094,0,1,0,0.833998400001292,3,0,1,-0.905641184252973,2.52114219963551,-1.55324303790661,-1.14436409553088,-0.0367369778454304,-1.5310052696888
02DiSt,1,3,717,Detection,0,4.652009578125,0.713744741604948,0,0,1,0.899949099999503,4,0,1,-2.27871308437005,0.337840242175067,-1.22600217774955,-0.548291065269555,-1.25847050417752,-1.51776916006716
02DiSt,1,3,718,Detection,0,4.652009578125,1.50748216872844,0,0,1,0.830710199999885,5,0,1,-1.46430591165577,2.19233629486819,0.608341401799201,0.331186219595585,0.595834876382007,0.577483550861205
02DiSt,1,3,719,Detection,0.0413168910196845,4.652009578125,-1.38999380682582,1,1,1,1.00012550000065,2,0,4,-1.09267459267584,3.85870953812832,0.979776579711109,1.48861368316252,2.38857717907343,1.22684016623875
02DiSt,1,3,720,Detection,0,4.652009578125,0.29737809558317,0,0,1,0.882833100000425,6,1,0,-0.655718583287441,4.63590362449972,2.41429766719625,3.90199370153815,3.3805803241638,2.73705460421923
02DiSt,1,3,721,Detection,0.0413168910196845,4.652009578125,0.143187859095709,1,1,1,1.30042959999992,1,0,4,-3.13885178564504,0.862384235599964,-0.759691515712158,2.08580104362994,0.660316982772201,-1.67853677350028
02DiSt,1,3,722,Detection,0.0413168910196845,4.652009578125,0.110550538762582,1,1,1,0.850087699998767,5,1,0,-4.70277463917685,-1.21528594263988,-0.485043760893399,1.02145751505463,0.809293470961543,-1.03407125075052
02DiSt,1,3,723,Detection,0,4.652009578125,2.48938841665941,0,0,1,0.850098399998387,3,0,1,-1.81133402507789,3.2995886977126,-0.0927523647666897,1.54926506753975,0.0193232770436085,-1.9651830870113
02DiSt,1,3,724,Detection,0,4.652009578125,0.0185272735403993,0,0,1,1.23510680000072,2,0,3,-0.561003017691102,2.60415411831402,-1.43978533532606,0.68004492295048,-2.5371880189444,-1.68791227787733
02DiSt,1,3,725,Detection,0.0413168910196845,4.652009578125,-1.36436796263251,1,0,0,0.883647599999676,2,0,1,-2.81219210365031,0.137332322036211,-3.50862327071759,-2.00095068402183,-3.55641149156369,-3.84636644328513
02DiSt,1,3,726,Detection,0.0413168910196845,4.652009578125,-0.921364266883339,1,0,0,1.48383040000044,2,0,3,-1.48992679721796,2.12418491061686,0.533947999217747,1.24401443108597,-0.697426255212542,-0.875903986348975
02DiSt,0,4,827,Detection,0.0413168910196845,4.652009578125,-0.28584467462689,1,0,0,1.09967300000062,5,1,0,-2.59969135580382,-3.09708584354418,-4.47453451390389,-3.84660314514717,-5.57039960347689,-2.42611187987211
02DiSt,0,4,828,Detection,0,4.652009578125,0.225637161771536,0,0,1,1.01712829999997,4,3,0,-0.480584135491143,0.380634791209226,-2.27926559284375,-1.81273604208083,-1.41547789152783,-2.14525676936638
02DiSt,0,4,829,Detection,0.0413168910196845,4.652009578125,1.01123690334818,1,0,0,1.39983419999953,4,1,1,1.54310899886238,2.70075764561572,0.953802969158714,0.720383771614212,1.44973463113062,0.399597236432317
02DiSt,0,4,830,Detection,0.0413168910196845,4.652009578125,-1.23965452074696,1,0,0,1.08340450000105,3,1,0,-0.902073919026199,-0.255809722720963,-0.989524137451189,-0.506481583554136,-1.59049407346891,-1.07008743309984
02DiSt,0,4,831,Detection,0,4.652009578125,-0.577388627843092,0,1,0,1.44581669999934,1,0,2,2.94041675270194,3.63180942697133,1.47617831777641,0.860976892047683,3.1525404766202,1.63932976562802
02DiSt,0,4,832,Detection,0.0413168910196845,4.652009578125,-0.377616852518222,1,0,0,0.999899400001595,1,0,1,-1.16022858870133,1.12897720435498,-2.98420443023302,0.390589462199347,-3.76133653149009,-3.35846134947567
02DiSt,0,4,833,Detection,0,4.652009578125,-0.677307979051441,0,1,0,0.816734599999108,2,0,2,-4.48701639694743,0.648006229048095,-4.35337931403385,-0.204023064543751,-3.57147776128438,-4.8651720372642
02DiSt,0,4,834,Detection,0,4.652009578125,0.321228254697109,0,0,1,0.883412400000452,3,1,0,-1.87771281544672,-1.28714011262012,-5.04663971140377,-1.32415019085064,-3.06459510698915,-4.48962817250229
02DiSt,0,4,835,Detection,0,4.652009578125,0.142549720886898,0,NaN,NaN,NaN,NaN,0,0,NaN,NaN,NaN,NaN,NaN,NaN
02DiSt,0,4,836,Detection,0,4.652009578125,0.392877943484092,0,1,0,1.18161210000108,1,0,5,-2.71861508827988,-0.529737261555544,-2.49509487038116,1.70271371989055,-1.26853343128012,-2.5521947339904
02DiSt,0,4,837,Detection,0.0413168910196845,4.652009578125,1.56955165675022,1,1,1,1.13287339999988,1,0,0,-0.777518546568359,0.822327269195783,-2.47599420653701,0.555685235521473,-1.91110244834652,-2.19130735228792
02DiSt,0,4,838,Detection,0.0413168910196845,4.652009578125,1.1083769431382,1,1,1,0.882974300000569,4,3,0,-0.611141116195531,2.43227275024827,-1.03872980334233,0.997050704416799,0.108249760741511,-0.59243915682068
02DiSt,0,4,839,Detection,0,4.652009578125,0.0208805917607286,0,0,1,0.902007900000172,4,1,0,-0.396901414607476,0.635286088215142,-2.1036009821463,-0.812066483879513,0.259099105817194,-1.94757562148862
02DiSt,0,4,840,Detection,0,4.652009578125,-1.63744364622205,0,0,1,0.833865000000515,5,1,0,0.0929577079887437,0.850171894039504,-1.02356175222478,-0.354040063238126,0.354421109759894,-0.0445286795247074
02DiSt,0,4,841,Detection,0.0413168910196845,4.652009578125,-0.154205121643091,1,0,0,0.982415800001036,2,0,4,0.554429128655408,2.74911154915647,-0.537186432156562,1.14439675206845,1.13593533751913,-0.453101470566741
02DiSt,0,4,842,Detection,0.0413168910196845,4.652009578125,-0.783675050866895,1,0,0,0.933462299999519,2,1,4,0.966532946803427,4.72959006305148,2.20842783390601,3.2659200656901,4.11526760673867,2.34891405659614
02DiSt,0,4,843,Detection,0.0413168910196845,4.652009578125,-0.307173925055209,1,1,1,0.998193200000969,3,0,1,-1.7322485447852,2.06540594613407,-0.478090744026322,1.03690361663568,0.0025009150401904,0.519002152288832
02DiSt,0,4,844,Detection,0.0413168910196845,4.652009578125,-0.0575049237861374,1,0,0,1.11607170000025,4,0,0,-0.165212728710163,1.43011983038812,-0.915702629193422,-0.501202280324398,-0.190482757054269,-1.22417909675846
02DiSt,0,4,845,Detection,0,4.652009578125,-0.760501426802572,0,0,1,0.898239500000273,5,0,0,-2.76607489585876,1.15006292042345,-1.28894498075551,0.536446071705659,-3.30899295110542,-0.513595563904723
02DiSt,0,4,846,Detection,0,4.652009578125,0.320655846046273,0,0,1,1.05102329999863,3,0,0,-1.86271642296031,2.07022441269421,-1.00438803382527,0.649494337420354,-0.545971942010622,-1.02148559644091
02DiSt,0,4,847,Detection,0.0413168910196845,4.652009578125,-0.638710610393377,1,1,1,1.41627150000022,2,0,4,-1.46451069433058,3.14676116806705,-0.142685591250749,2.1072931706136,0.374057801981242,-1.37863898779288
02DiSt,0,4,848,Detection,0.0413168910196845,4.652009578125,0.309100596055783,1,1,1,1.06466809999984,1,0,3,-0.496488153196798,5.4772845252258,0.37107558029059,1.30473225425711,1.36741149201989,-0.446547539132397
02DiSt,0,4,849,Detection,0.0413168910196845,4.652009578125,0.303162991082081,1,1,1,0.850975900000776,5,3,0,-2.57856339216232,2.24246394625161,-1.33491652304974,0.327343929704512,0.480174863710999,-0.637412252750747
02DiSt,0,4,850,Detection,0,4.652009578125,0.985591454475539,0,0,1,1.08342850000008,1,0,1,-2.82391730157456,-1.65435950179789,-6.28069255163192,-4.75002443412339,-2.623302090605,-4.18186737124513
02DiSt,0,4,851,Detection,0,4.652009578125,1.16921794715727,0,1,0,1.16763840000021,4,1,0,1.74392616505375,4.45530761451256,-0.277437292441899,0.585385536418155,2.73755484186113,0.0448050756552597
02DiSt,0,4,852,Detection,0,4.652009578125,0.752476340843267,0,0,1,0.901880299999902,5,0,0,-2.62766026919431,1.27955924074461,-1.90443469871067,0.140649294012489,-0.846514282963024,-0.984652257092842
02DiSt,0,5,901,Detection,0.0413168910196845,4.652009578125,1.78879333825186,1,1,1,0.969506999999794,4,0,1,-0.26648271911879,0.38546817502995,-1.37271435712822,-1.14303371862343,-0.919113404160509,-1.26356117243995
02DiSt,1,5,902,Detection,0.0413168910196845,4.652009578125,-0.489482568777644,1,1,1,0.998209200000929,4,2,0,-2.76609589255387,1.19792030434828,-2.2369791749386,0.330772799530836,-4.23436707665141,-2.25770041117127
02DiSt,1,5,903,Detection,0.0413168910196845,4.652009578125,-0.298489615394585,1,0,0,0.917065799998454,2,0,1,-1.40589083901533,2.41478717381634,-1.10311797969321,0.628086896667652,0.940689833705815,-1.11390779423385
02DiSt,1,5,904,Detection,0.0413168910196845,4.652009578125,-0.457674268810757,1,0,0,0.966567800000121,2,0,1,-0.841411275530953,2.14295325648585,0.812419712766421,2.67609073077556,0.428394779279971,0.760665177333555
02DiSt,1,5,905,Detection,0.0413168910196845,4.652009578125,0.337423753746433,1,1,1,1.16698070000166,5,3,0,-1.54866132497935,1.47197407888385,-0.615299251066287,0.0836045082339653,-2.76662881981868,0.780091914007576
02DiSt,1,5,906,Detection,0.0413168910196845,4.652009578125,0.301261576126188,1,1,1,0.917278400000214,3,2,1,-2.67051036626396,1.78731428241221,-0.449830170593089,-0.880175216682129,-1.18254970027617,0.210439475965203
02DiSt,1,5,907,Detection,0,4.652009578125,0.782451073015039,0,0,1,1.2662924999986,2,0,1,-1.98140249190861,2.49793972901818,-0.413215730342117,0.704881556605434,-0.365477213134559,0.817919149884824
02DiSt,1,5,908,Detection,0.0413168910196845,4.652009578125,-1.10981554709284,1,0,0,0.885217099999863,1,0,1,-3.39892576380384,2.47163682310308,-0.546697660100454,0.198841469332009,-0.55459382942018,0.466697104297942
02DiSt,1,5,909,Detection,0,4.652009578125,-0.447388701954069,0,0,1,0.98154169999907,4,2,0,-1.60754718761522,3.45851677703876,0.281601935663489,0.526733162011901,0.640299176797271,1.56725915603158
02DiSt,1,5,910,Detection,0.0413168910196845,4.652009578125,-0.898140987095095,1,0,0,0.981551199998648,3,1,0,-1.97328824538848,1.72806911546419,-1.64687453541548,-1.07990901241504,-0.946522508654743,-0.0895828744737295
02DiSt,1,5,911,Detection,0,4.652009578125,0.703154434348438,0,1,0,1.29996860000028,1,0,2,-1.62406018774698,3.29322911072068,-0.591040643053657,1.16058129837494,0.515779577765184,0.588649687879696
02DiSt,1,5,912,Detection,0.0413168910196845,4.652009578125,-0.599180766250646,1,0,0,0.966368400000647,4,0,1,-0.94658857944599,3.23428164749611,-0.232354653969045,0.591983898529535,-1.15355627657129,0.835783335584693
02DiSt,1,5,913,Detection,0,4.652009578125,-0.436505371722997,0,0,1,0.94959100000051,4,1,2,-1.49145297809403,4.16523955653353,-0.512567057325184,0.126291976674743,-0.47073742753038,-1.14321329940974
02DiSt,1,5,914,Detection,0,4.652009578125,-0.287734647383267,0,1,0,1.19802080000045,2,1,0,-2.74943903870512,1.64283707684542,-2.53113489633479,-1.02442132414011,-0.835346273637305,-2.5816536211386
02DiSt,1,5,915,Detection,0.0413168910196845,4.652009578125,1.14929178116829,1,1,1,0.83570839999993,4,3,0,-1.06156433251972,2.99641169116991,-1.25373978972311,0.606888028207164,0.433212445282306,-1.93117378670268
02DiSt,1,5,916,Detection,0,4.652009578125,-0.16814028026989,0,0,1,0.866809699999067,3,0,1,0.298094531004824,3.11074881968883,0.248591322076662,1.69456234294921,2.51124473846732,-0.766352806013168
02DiSt,1,5,917,Detection,0,4.652009578125,0.18471671606228,0,0,1,0.868424899999809,5,3,0,-0.278988303028803,3.53994101358623,-1.57838964457779,1.46501968738259,0.72385528526054,-1.79575671333956
02DiSt,1,5,918,Detection,0.0413168910196845,4.652009578125,-1.33585765003932,1,1,1,1.19934900000044,2,1,0,1.60010496460565,3.95128327971551,-0.091211663691048,2.7253252892836,3.39539013556563,-0.973988083713665
02DiSt,1,5,919,Detection,0,4.652009578125,1.5628962983675,0,0,1,0.900445799999943,5,1,0,2.91074248469702,5.42125757583758,2.31395747794568,3.99547391640195,6.49901480067235,0.537545669596733
02DiSt,1,5,920,Detection,0,4.652009578125,1.54209042387289,0,0,1,0.851964299999963,4,2,0,-1.35726764395206,0.689674306342878,-2.42832572985561,-0.456019182791984,-0.831565998408657,-2.69097045571657
02DiSt,1,5,921,Detection,0.0413168910196845,4.652009578125,0.579125061006961,1,0,0,1.26525290000063,4,1,1,-2.51979997112314,-1.23211258727058,-5.19791529810071,-2.38601830429853,-3.22085076123476,-5.99026510192127
02DiSt,1,5,922,Detection,0,4.652009578125,0.729160134317041,0,0,1,1.1830444999996,4,0,2,1.08569125123414,2.13348718441841,-0.667170748132496,0.539562922335118,0.389433560806971,-1.95905975733952
02DiSt,1,5,923,Detection,0.0413168910196845,4.652009578125,-1.21547798881844,1,1,1,1.16655909999827,1,0,5,-0.710954406252592,2.62001655468854,-1.1578582448768,0.431314965381044,0.962237259566497,-1.67354502793538
02DiSt,1,5,924,Detection,0,4.652009578125,0.598051878926849,0,1,0,1.35018260000106,1,0,2,2.74763619311449,3.33218131705028,1.22801874569515,2.00932475364686,3.78197301385494,0.458407066785163
02DiSt,1,5,925,Detection,0,4.652009578125,-0.00917575776094141,0,0,1,1.00016940000023,5,0,1,-0.2534837553273,1.86577401353364,-2.00398529560331,-2.05288893092707,-1.87096409998261,-1.84401222563735
02DiSt,1,5,926,Detection,0,4.652009578125,-0.490528279282139,0,0,1,1.10013679999975,4,3,0,-2.90133357166064,-3.29638595888164,-0.184665328012365,-2.02296978389875,-2.36602087152692,-0.406720413440248
02DiSt,0,1,527,Tilt,0.2,4.652009578125,-0,0,0,1,0.949906499999997,5,2,0,-1.95746354330884,0.653270550015405,-0.662674622515005,0.98470376199491,-1.66264451064456,-1.21970527428316
02DiSt,1,1,528,Tilt,0.2,4.652009578125,0,0,0,1,0.916227899999285,5,1,0,-2.24341974754145,0.640164614768653,-0.131660687116914,1.30364312806341,-0.452095308427054,-0.304905032917925
02DiSt,1,1,529,Tilt,0.2,4.652009578125,-0.405725869941862,1,1,1,0.966642900000807,6,5,0,-1.74436503102874,0.697454027576009,-0.385361611829912,0.957329961225775,-0.730354221494725,-1.2972250442225
02DiSt,1,1,530,Tilt,0.2,4.652009578125,-0.499527892352939,1,1,1,0.947686200001044,4,0,2,-2.15287382926073,2.17945985514216,0.623091049960731,1.75378790985997,1.20140885742954,-0.00288804735659718
02DiSt,1,1,531,Tilt,0.2,4.652009578125,0,0,0,1,0.980348799999774,4,1,2,-1.12220193855096,1.81861993720437,-0.51249317563778,1.04238111810422,-0.555418910430028,-0.653688214253634
02DiSt,1,1,532,Tilt,0.2,4.652009578125,-1.18137094445915,1,1,1,0.903614900000321,6,6,0,0.285727559007926,2.80406929588899,1.37503486730984,2.27856943796075,1.16722516979879,2.2150341990154
02DiSt,1,1,533,Tilt,0.2,4.652009578125,-0.0382027830491433,1,0,0,1.11660889999985,4,0,0,1.20000345734787,4.67777916134858,0.537309605213493,1.1887844680978,-1.32617717782895,1.71895894299193
02DiSt,1,1,534,Tilt,0.2,4.652009578125,0,0,0,1,0.916943199999878,4,1,2,-0.608557784683209,3.24633226888936,0.799217651819675,1.18739000946562,1.5270525694968,-0.10249237348212
02DiSt,1,1,535,Tilt,0.2,4.652009578125,0,0,0,1,0.950287699999535,4,1,0,0.543283367358923,2.6783665237812,0.0468514237811163,0.740865654489228,-1.22929461885673,0.912418706524299
02DiSt,1,1,536,Tilt,0.2,4.652009578125,-0.329851772457616,1,1,1,0.981631700000435,2,0,0,0.121772913068607,5.46426062612999,2.80827849764973,2.52375009170045,3.08641579962121,2.39088618712182
02DiSt,1,1,537,Tilt,0.2,4.652009578125,0,0,0,1,1.19987959999889,3,0,2,-1.46501106053296,3.60422756759132,0.540865751565905,1.12326688519755,-0.0655953838203389,0.532779395407089
02DiSt,1,1,538,Tilt,0.2,4.652009578125,-0.585607745488988,1,1,1,0.983544299999267,2,0,3,0.967331567516384,4.34341718583572,0.72921140255644,1.83879013508356,-0.855344842832822,2.42317532747984
02DiSt,1,1,539,Tilt,0.2,4.652009578125,-0,0,0,1,0.999405599999591,4,1,0,0.618213505023113,5.12318672784945,0.00274146525406086,1.00321085974587,-0.30202845649149,1.03302138288528
02DiSt,1,1,540,Tilt,0.2,4.652009578125,-0,0,0,1,1.41769670000031,4,0,1,1.54756676416733,6.0113546543005,1.18615364888589,1.74894649455445,1.17549732007946,2.3820905187508
02DiSt,1,1,541,Tilt,0.2,4.652009578125,1.03197165727221,1,1,1,0.916622600001574,6,2,0,-0.0776128422210712,5.54000967595635,0.530270727716107,2.0522107109883,1.36945126856892,0.651274110463153
02DiSt,1,1,542,Tilt,0.2,4.652009578125,-0,0,0,1,0.91776629999913,5,0,0,0.810237071707402,4.68815454477217,1.31788847382984,2.80514670234381,0.33472590223492,1.80265863566864
02DiSt,1,1,543,Tilt,0.2,4.652009578125,0,0,0,1,1.0996697999999,4,2,0,1.05778385637937,5.42398233748064,1.0898865384143,1.75416200636676,2.33020592551822,0.749599336941795
02DiSt,1,1,544,Tilt,0.2,4.652009578125,1.09047989804409,1,1,1,1.05043070000102,3,1,0,1.98083958900211,5.3094508786027,0.582973320906235,1.48759624990128,1.98773068074997,2.15096127955107
02DiSt,1,1,545,Tilt,0.2,4.652009578125,-1.2091361390061,1,1,1,0.933747400000357,6,5,0,-0.115772029348087,3.53895908812197,0.797061564257512,1.97487383720252,0.436660609308344,2.9130814202675
02DiSt,1,1,546,Tilt,0.2,4.652009578125,0.22942944167473,1,0,0,1.03357870000036,4,0,1,0.68800348744239,3.9182442659285,-1.27004654282835,-0.200453953106974,-1.48733721313855,0.516741385984039
02DiSt,1,1,547,Tilt,0.2,4.652009578125,0,0,0,1,0.883410699998421,4,1,0,-1.2005262869862,1.00012601371613,-1.12460384797776,0.0778566939343759,-3.41074136954087,0.488563416662013
02DiSt,1,1,548,Tilt,0.2,4.652009578125,-0,0,0,1,0.983469500000865,2,0,0,0.026375653692475,3.54990683314277,-1.14872593809907,0.0639606115924518,-1.51121968042392,0.101404296461402
02DiSt,1,1,549,Tilt,0.2,4.652009578125,1.32822092277967,1,1,1,1.01457449999907,3,0,0,-1.31420759502614,1.67234793123108,-1.50163573868936,-0.302684926500977,-2.74780398761997,-0.356554549743944
02DiSt,1,1,550,Tilt,0.2,4.652009578125,0.0508549423382417,1,0,0,1.08349740000085,4,0,0,-1.10029188299893,2.51250518740314,-1.93549006951309,-1.07506165049373,-3.31724915768091,0.159416355715111
02DiSt,1,1,551,Tilt,0.2,4.652009578125,0.743947354439355,1,0,0,0.983345200000258,4,2,0,-1.34780285204991,1.58969231279249,-1.73429533664416,-0.0088521541626466,-5.55252163203863,0.733847724319231
02DiSt,1,1,552,Tilt,0.2,4.652009578125,-0,0,1,0,0.983970999999656,2,1,1,-1.83712910432922,2.05158236282083,-2.73801878273774,-0.423042192793851,-3.63981094522258,-1.00433048516194
02DiSt,0,2,653,Tilt,0.2,4.652009578125,-0,0,0,1,0.814978800000972,5,0,1,-0.990209652830173,1.30838904820564,0.650706499045798,0.623461237139291,0.928939470247581,1.53916084941295
02DiSt,1,2,654,Tilt,0.2,4.652009578125,-0.0374514300448179,1,0,0,1.39796700000079,4,1,0,-3.09681241051985,-0.748444222799707,-0.899981963483575,-0.00625233070256755,-1.55991191518887,-1.52905682874162
02DiSt,1,2,655,Tilt,0.2,4.652009578125,-0.358427139837685,1,1,1,1.00029089999953,4,1,0,-1.56796930335683,-0.176027219833397,1.34525352141439,1.73287496006687,-0.531274015560316,1.97842443375508
02DiSt,1,2,656,Tilt,0.2,4.652009578125,-0.918287010542386,1,1,1,0.850853300000381,6,3,0,-3.09109315158117,-0.890557151946535,-1.94802071409041,-1.37876124210063,-3.12661646696237,-0.690254930940616
02DiSt,1,2,657,Tilt,0.2,4.652009578125,0,0,0,1,0.883357999999134,3,0,2,-2.21214250438284,0.267065576629759,-0.801915500785303,-1.25500547459334,-2.19226693860613,-0.810089724615398
02DiSt,1,2,658,Tilt,0.2,4.652009578125,-0,0,0,1,0.967918399999689,3,0,3,-0.375311082643964,1.56745953388262,-1.57709589297223,-1.01119270586502,-2.48599583916366,-2.32485748046055
02DiSt,1,2,659,Tilt,0.2,4.652009578125,-0.285019524857941,1,1,1,1.1001183999997,4,0,1,-0.878139336289156,2.3345598380831,-0.921819613458445,-1.55376337424083,-1.98092138747183,-1.51931595879255
02DiSt,1,2,660,Tilt,0.2,4.652009578125,0,0,NaN,NaN,NaN,NaN,0,0,NaN,NaN,NaN,NaN,NaN,NaN
02DiSt,1,2,661,Tilt,0.2,4.652009578125,0,0,0,1,0.935363399999915,2,0,4,-1.38981225393196,1.34080526459871,-0.910223138053913,0.535394458327969,-3.82966262809932,-0.699398542822498
02DiSt,1,2,662,Tilt,0.2,4.652009578125,0,0,0,1,0.966699600001448,2,0,2,-1.27407520279141,1.84723471034682,-0.633035302662238,0.895606654658205,-1.91679822882781,0.246871179696627
02DiSt,1,2,663,Tilt,0.2,4.652009578125,0,0,0,1,1.21625070000118,1,0,2,-1.22520238209036,2.6783512819831,0.659831511251947,1.81678852809431,-0.555013360527272,0.413829136310463
02DiSt,1,2,664,Tilt,0.2,4.652009578125,-0.785594252773139,1,1,1,0.852385700000013,6,3,0,-1.71682532906237,1.42340751103035,1.55778956910226,1.97951653087006,-0.673197863996029,2.42564984883477
02DiSt,1,2,665,Tilt,0.2,4.652009578125,-1.46552954189055,1,1,1,0.850682199999937,6,3,0,-2.21151997682887,0.753293223065756,0.702837586210596,2.35780007720156,1.0495317285164,1.34664760323287
02DiSt,1,2,666,Tilt,0.2,4.652009578125,0,0,0,1,0.916919999999664,5,1,0,-1.49967590420701,-0.832061305392261,0.853188877540682,0.334871285169831,-1.78217151556164,0.377057208832944
02DiSt,1,2,667,Tilt,0.2,4.652009578125,-0,0,1,0,1.11736550000023,2,0,3,-3.50630021287073,-1.3763151013281,-0.759763881787191,-1.83318183301953,-1.61257679528342,-1.61858731942115
02DiSt,1,2,668,Tilt,0.2,4.652009578125,0.123414911375,1,0,0,1.181591999999,1,0,2,2.20016592873795,5.62910307616722,2.92030921266395,3.73083157266197,3.60158949336753,1.16753023742448
02DiSt,1,2,669,Tilt,0.2,4.652009578125,-1.55267145199307,1,1,1,1.39995599999929,6,3,0,0.456364135640572,2.42739204203755,1.54842584588667,2.77748828864855,2.33567033077662,0.583663095656226
02DiSt,1,2,670,Tilt,0.2,4.652009578125,-0.0333388325522533,1,1,1,1.03387789999942,3,0,0,-1.34177583027262,2.07112293471241,3.13443398635824,4.43603872374186,2.28065917893098,1.26822537964028
02DiSt,1,2,671,Tilt,0.2,4.652009578125,0,0,0,1,0.766807500000141,6,1,1,-0.433973082009297,2.39064724931902,2.24313701822249,3.11483217419996,2.88768643930268,0.865585334755185
02DiSt,1,2,672,Tilt,0.2,4.652009578125,-0.921820443241206,1,1,1,0.866768199999569,5,1,1,-0.972253820757465,-0.123005636638348,1.90700537791317,3.00591959641062,1.77040267856075,1.00992289719331
02DiSt,1,2,673,Tilt,0.2,4.652009578125,-0,0,1,0,1.03371279999919,1,0,5,-2.07107901499413,0.901162355593065,1.11889288329089,2.80649645652865,2.41311458240335,0.0906914186368628
02DiSt,1,2,674,Tilt,0.2,4.652009578125,-1.10191313473745,1,1,1,0.949482400001216,5,3,0,0.158630835152093,0.824564937008091,1.97536709076378,2.41830633322926,2.6719441130023,-0.0888410895585832
02DiSt,1,2,675,Tilt,0.2,4.652009578125,-0.15943415786965,1,1,1,1.18386319999991,2,0,3,-2.47882024346307,-1.43155867815381,-0.342792525864866,-0.0382253049667823,1.2228117610704,-0.826744066687619
02DiSt,1,2,676,Tilt,0.2,4.652009578125,0,0,0,1,0.916325199999847,4,2,0,-3.09718051161801,-2.76097575358467,-1.33676466004365,-1.18014802454981,-2.12139420896195,-1.76158375569006
02DiSt,1,2,677,Tilt,0.2,4.652009578125,-0.150681862075498,1,0,0,0.968006900000546,4,3,1,-1.84398346285492,-1.62681686605622,-2.23765896042236,-1.23005680634347,-0.0840160780801223,-1.85826983393692
02DiSt,1,2,678,Tilt,0.2,4.652009578125,-0,0,0,1,1.04858890000105,5,4,0,-0.940760447652918,-1.77080497109308,-2.20399690524704,-0.483109194658818,-0.806573223208006,-2.26581217257715
02DiSt,0,3,727,Tilt,0.2,4.652009578125,-1.13675729316306,1,1,1,0.86879030000091,5,1,1,-0.717474507592102,2.03733873803441,0.0995999807473046,0.410981515199756,0.107586950500711,-0.272070284819276
02DiSt,1,3,728,Tilt,0.2,4.652009578125,-0,0,0,1,0.834054700000706,5,1,1,-1.51125408104151,0.148042668102922,0.315818618310932,0.805973216084606,-0.654602266935847,0.189799896657194
02DiSt,1,3,729,Tilt,0.2,4.652009578125,-0,0,0,1,0.816914400000314,5,2,0,-1.77402780278779,0.727541070931205,-1.09940186212865,0.0975799445735427,-0.496713489516137,-0.644264499742038
02DiSt,1,3,730,Tilt,0.2,4.652009578125,-0.412762164267824,1,1,1,0.966532800001005,2,0,1,-0.699493725996206,0.874611101144493,0.730259502903268,0.388676262361949,1.61382190161026,0.630330136000383
02DiSt,1,3,731,Tilt,0.2,4.652009578125,-1.73145982033936,1,1,1,0.800606700000571,6,3,0,-2.28548114127157,-2.67766725326457,0.387751184928001,0.478439080905999,-0.561380333979972,0.445808312310497
02DiSt,1,3,732,Tilt,0.2,4.652009578125,0.0288022689528299,1,0,0,0.866708200001085,5,4,0,-0.924922473359816,0.327314943620344,-1.09186533662521,-1.90768799331905,-0.741040770680858,-1.8367402466332
02DiSt,1,3,733,Tilt,0.2,4.652009578125,0,0,0,1,0.851630400000431,5,4,0,0.0358900042028295,-1.18322831251454,0.455585178217817,-0.78061981703523,0.124563386878715,-0.294227657385352
02DiSt,1,3,734,Tilt,0.2,4.652009578125,1.11322743437877,1,0,0,0.897850999999719,5,2,2,-0.829473193548159,0.125843843013593,-1.48411780988764,-1.63121045152555,-0.737421851691145,-0.350028392938306
02DiSt,1,3,735,Tilt,0.2,4.652009578125,-0.210055415052657,1,0,0,1.0523331000004,5,4,0,-1.23096384892775,0.550587117740112,-0.070371086516904,0.441196262768126,0.291595715255691,0.126794643677408
02DiSt,1,3,736,Tilt,0.2,4.652009578125,1.62269618321451,1,1,1,0.950591200000417,4,4,0,-2.4061131065361,-1.28600389946525,-1.64536032115292,-0.710631977417506,1.44535519661597,-1.19219833995193
02DiSt,1,3,737,Tilt,0.2,4.652009578125,0,0,0,1,0.800120500000048,5,4,0,-1.36910622762424,-3.32436103791725,-1.04755079221223,-1.06724125271823,2.25189588470743,-1.58714446745722
02DiSt,1,3,738,Tilt,0.2,4.652009578125,1.51369411821765,1,1,1,1.05008090000047,5,2,0,-0.650629892539565,-0.445501523552372,-1.25357732483231,-1.36160672032376,2.53383512959744,-2.71542648641711
02DiSt,1,3,739,Tilt,0.2,4.652009578125,0.977330467165467,1,1,1,0.867642799999885,3,0,1,0.728571886777656,3.67688966467522,-1.32580437810963,0.088251972695023,1.48630063677063,-2.06935569026121
02DiSt,1,3,740,Tilt,0.2,4.652009578125,1.0070617570304,1,0,0,1.15004059999956,2,0,4,2.72347586048712,3.98198989896876,1.31177938651946,1.82776721251202,2.47229406302437,-0.0768236661806884
